1
5/21/2024 5:40 PM
Wavelength (nm)	10mm Absorbance
//WLCalib: Shift 	0.10667	
//WLCalib: 261S 	-0.59000	
//WLCalib: 362S 	-0.96000	
//WLCalib: 484S 	-0.30000	
//WLCalib: 529S 	-0.11000	
//WLCalib: 823S 	-0.54000	
//QSpecEnd: 
190.0	5.658
190.5	5.742
191.0	5.775
191.5	5.902
192.0	5.869
192.5	5.897
193.0	5.883
193.5	5.858
194.0	5.827
194.5	5.938
195.0	6.265
195.5	6.409
196.0	6.648
196.5	6.811
197.0	7.027
197.5	7.194
198.0	7.275
198.5	7.571
199.0	7.973
199.5	8.430
200.0	9.038
200.5	9.587
201.0	10.240
201.5	10.852
202.0	11.500
202.5	12.149
203.0	12.811
203.5	13.447
204.0	14.012
204.5	14.479
205.0	14.877
205.5	15.151
206.0	15.388
206.5	15.552
207.0	15.704
207.5	15.801
208.0	15.931
208.5	16.024
209.0	16.098
209.5	16.241
210.0	16.171
210.5	16.155
211.0	16.206
211.5	16.260
212.0	16.312
212.5	16.351
213.0	16.389
213.5	16.402
214.0	16.459
214.5	16.517
215.0	16.473
215.5	16.551
216.0	16.676
216.5	16.818
217.0	17.016
217.5	17.221
218.0	17.433
218.5	17.690
219.0	18.099
219.5	18.512
220.0	18.783
220.5	18.989
221.0	19.287
221.5	19.662
222.0	19.919
222.5	19.886
223.0	19.693
223.5	19.763
224.0	19.748
224.5	19.732
225.0	19.569
225.5	19.459
226.0	19.542
226.5	19.514
227.0	19.268
227.5	19.016
228.0	18.737
228.5	18.721
229.0	18.501
229.5	18.434
230.0	18.178
230.5	17.907
231.0	17.581
231.5	17.124
232.0	16.568
232.5	16.031
233.0	15.442
233.5	14.886
234.0	14.368
234.5	13.909
235.0	13.500
235.5	13.116
236.0	12.785
236.5	12.383
237.0	12.029
237.5	11.691
238.0	11.342
238.5	11.036
239.0	10.750
239.5	10.490
240.0	10.196
240.5	9.912
241.0	9.655
241.5	9.424
242.0	9.231
242.5	9.080
243.0	8.932
243.5	8.813
244.0	8.695
244.5	8.576
245.0	8.430
245.5	8.280
246.0	8.134
246.5	8.004
247.0	7.898
247.5	7.828
248.0	7.787
248.5	7.755
249.0	7.722
249.5	7.683
250.0	7.633
250.5	7.582
251.0	7.535
251.5	7.503
252.0	7.460
252.5	7.436
253.0	7.422
253.5	7.406
254.0	7.400
254.5	7.395
255.0	7.391
255.5	7.405
256.0	7.414
256.5	7.423
257.0	7.416
257.5	7.412
258.0	7.410
258.5	7.409
259.0	7.416
259.5	7.417
260.0	7.429
260.5	7.437
261.0	7.441
261.5	7.454
262.0	7.461
262.5	7.480
263.0	7.497
263.5	7.516
264.0	7.533
264.5	7.552
265.0	7.556
265.5	7.560
266.0	7.572
266.5	7.580
267.0	7.595
267.5	7.602
268.0	7.611
268.5	7.625
269.0	7.624
269.5	7.629
270.0	7.613
270.5	7.595
271.0	7.571
271.5	7.549
272.0	7.525
272.5	7.490
273.0	7.474
273.5	7.445
274.0	7.411
274.5	7.385
275.0	7.338
275.5	7.291
276.0	7.254
276.5	7.219
277.0	7.177
277.5	7.134
278.0	7.091
278.5	7.028
279.0	6.970
279.5	6.903
280.0	6.821
280.5	6.742
281.0	6.654
281.5	6.578
282.0	6.497
282.5	6.412
283.0	6.321
283.5	6.242
284.0	6.170
284.5	6.104
285.0	6.036
285.5	5.968
286.0	5.903
286.5	5.850
287.0	5.793
287.5	5.724
288.0	5.658
288.5	5.596
289.0	5.537
289.5	5.477
290.0	5.417
290.5	5.355
291.0	5.298
291.5	5.243
292.0	5.192
292.5	5.134
293.0	5.086
293.5	5.037
294.0	4.990
294.5	4.942
295.0	4.890
295.5	4.834
296.0	4.788
296.5	4.742
297.0	4.692
297.5	4.656
298.0	4.616
298.5	4.575
299.0	4.534
299.5	4.500
300.0	4.459
300.5	4.419
301.0	4.387
301.5	4.356
302.0	4.326
302.5	4.297
303.0	4.261
303.5	4.230
304.0	4.200
304.5	4.174
305.0	4.141
305.5	4.112
306.0	4.081
306.5	4.055
307.0	4.037
307.5	4.012
308.0	3.988
308.5	3.964
309.0	3.943
309.5	3.917
310.0	3.889
310.5	3.869
311.0	3.842
311.5	3.829
312.0	3.819
312.5	3.800
313.0	3.784
313.5	3.765
314.0	3.754
314.5	3.738
315.0	3.728
315.5	3.717
316.0	3.699
316.5	3.686
317.0	3.670
317.5	3.657
318.0	3.642
318.5	3.626
319.0	3.618
319.5	3.604
320.0	3.600
320.5	3.589
321.0	3.574
321.5	3.559
322.0	3.544
322.5	3.533
323.0	3.516
323.5	3.497
324.0	3.477
324.5	3.464
325.0	3.455
325.5	3.445
326.0	3.435
326.5	3.424
327.0	3.411
327.5	3.399
328.0	3.385
328.5	3.360
329.0	3.337
329.5	3.323
330.0	3.301
330.5	3.291
331.0	3.281
331.5	3.262
332.0	3.235
332.5	3.213
333.0	3.196
333.5	3.166
334.0	3.138
334.5	3.123
335.0	3.106
335.5	3.098
336.0	3.081
336.5	3.056
337.0	3.030
337.5	3.005
338.0	2.986
338.5	2.955
339.0	2.921
339.5	2.900
340.0	2.877
340.5	2.850
341.0	2.828
341.5	2.811
342.0	2.795
342.5	2.775
343.0	2.752
343.5	2.722
344.0	2.693
344.5	2.667
345.0	2.636
345.5	2.603
346.0	2.578
346.5	2.555
347.0	2.531
347.5	2.509
348.0	2.486
348.5	2.465
349.0	2.452
349.5	2.435
350.0	2.413
350.5	2.392
351.0	2.365
351.5	2.331
352.0	2.307
352.5	2.279
353.0	2.251
353.5	2.227
354.0	2.212
354.5	2.194
355.0	2.176
355.5	2.163
356.0	2.147
356.5	2.128
357.0	2.108
357.5	2.087
358.0	2.064
358.5	2.046
359.0	2.024
359.5	2.003
360.0	1.986
360.5	1.970
361.0	1.952
361.5	1.937
362.0	1.920
362.5	1.916
363.0	1.907
363.5	1.904
364.0	1.894
364.5	1.882
365.0	1.870
365.5	1.854
366.0	1.837
366.5	1.825
367.0	1.814
367.5	1.811
368.0	1.802
368.5	1.792
369.0	1.780
369.5	1.766
370.0	1.752
370.5	1.742
371.0	1.742
371.5	1.738
372.0	1.738
372.5	1.741
373.0	1.729
373.5	1.715
374.0	1.705
374.5	1.692
375.0	1.678
375.5	1.674
376.0	1.668
376.5	1.663
377.0	1.662
377.5	1.662
378.0	1.653
378.5	1.648
379.0	1.646
379.5	1.639
380.0	1.630
380.5	1.626
381.0	1.618
381.5	1.613
382.0	1.603
382.5	1.600
383.0	1.599
383.5	1.598
384.0	1.594
384.5	1.587
385.0	1.581
385.5	1.582
386.0	1.575
386.5	1.565
387.0	1.560
387.5	1.554
388.0	1.552
388.5	1.547
389.0	1.538
389.5	1.534
390.0	1.533
390.5	1.535
391.0	1.528
391.5	1.522
392.0	1.523
392.5	1.516
393.0	1.508
393.5	1.503
394.0	1.500
394.5	1.499
395.0	1.500
395.5	1.501
396.0	1.500
396.5	1.499
397.0	1.496
397.5	1.493
398.0	1.484
398.5	1.480
399.0	1.479
399.5	1.472
400.0	1.469
400.5	1.463
401.0	1.469
401.5	1.468
402.0	1.464
402.5	1.466
403.0	1.461
403.5	1.455
404.0	1.450
404.5	1.442
405.0	1.436
405.5	1.432
406.0	1.432
406.5	1.428
407.0	1.424
407.5	1.426
408.0	1.427
408.5	1.425
409.0	1.422
409.5	1.422
410.0	1.419
410.5	1.413
411.0	1.407
411.5	1.404
412.0	1.398
412.5	1.397
413.0	1.397
413.5	1.396
414.0	1.394
414.5	1.398
415.0	1.395
415.5	1.391
416.0	1.387
416.5	1.383
417.0	1.377
417.5	1.371
418.0	1.366
418.5	1.362
419.0	1.361
419.5	1.361
420.0	1.358
420.5	1.353
421.0	1.351
421.5	1.348
422.0	1.344
422.5	1.341
423.0	1.340
423.5	1.338
424.0	1.337
424.5	1.336
425.0	1.339
425.5	1.338
426.0	1.339
426.5	1.338
427.0	1.335
427.5	1.333
428.0	1.328
428.5	1.322
429.0	1.319
429.5	1.314
430.0	1.315
430.5	1.312
431.0	1.315
431.5	1.314
432.0	1.314
432.5	1.313
433.0	1.310
433.5	1.308
434.0	1.305
434.5	1.303
435.0	1.304
435.5	1.301
436.0	1.300
436.5	1.295
437.0	1.289
437.5	1.287
438.0	1.284
438.5	1.279
439.0	1.276
439.5	1.278
440.0	1.279
440.5	1.281
441.0	1.283
441.5	1.282
442.0	1.279
442.5	1.279
443.0	1.278
443.5	1.271
444.0	1.266
444.5	1.262
445.0	1.258
445.5	1.258
446.0	1.258
446.5	1.261
447.0	1.261
447.5	1.267
448.0	1.268
448.5	1.269
449.0	1.265
449.5	1.261
450.0	1.256
450.5	1.256
451.0	1.255
451.5	1.254
452.0	1.256
452.5	1.259
453.0	1.258
453.5	1.255
454.0	1.248
454.5	1.241
455.0	1.238
455.5	1.238
456.0	1.238
456.5	1.235
457.0	1.235
457.5	1.238
458.0	1.241
458.5	1.242
459.0	1.240
459.5	1.236
460.0	1.234
460.5	1.234
461.0	1.233
461.5	1.230
462.0	1.226
462.5	1.226
463.0	1.228
463.5	1.230
464.0	1.231
464.5	1.229
465.0	1.229
465.5	1.228
466.0	1.229
466.5	1.226
467.0	1.225
467.5	1.223
468.0	1.221
468.5	1.222
469.0	1.222
469.5	1.218
470.0	1.217
470.5	1.213
471.0	1.213
471.5	1.211
472.0	1.209
472.5	1.206
473.0	1.200
473.5	1.200
474.0	1.200
474.5	1.202
475.0	1.203
475.5	1.207
476.0	1.210
476.5	1.210
477.0	1.208
477.5	1.209
478.0	1.207
478.5	1.208
479.0	1.207
479.5	1.205
480.0	1.202
480.5	1.200
481.0	1.198
481.5	1.196
482.0	1.196
482.5	1.198
483.0	1.199
483.5	1.200
484.0	1.198
484.5	1.196
485.0	1.196
485.5	1.191
486.0	1.187
486.5	1.185
487.0	1.183
487.5	1.181
488.0	1.182
488.5	1.181
489.0	1.184
489.5	1.187
490.0	1.191
490.5	1.191
491.0	1.188
491.5	1.187
492.0	1.185
492.5	1.182
493.0	1.184
493.5	1.185
494.0	1.189
494.5	1.192
495.0	1.195
495.5	1.193
496.0	1.186
496.5	1.178
497.0	1.171
497.5	1.165
498.0	1.165
498.5	1.166
499.0	1.169
499.5	1.176
500.0	1.180
500.5	1.185
501.0	1.187
501.5	1.189
502.0	1.186
502.5	1.190
503.0	1.194
503.5	1.196
504.0	1.195
504.5	1.196
505.0	1.191
505.5	1.190
506.0	1.186
506.5	1.184
507.0	1.175
507.5	1.178
508.0	1.184
508.5	1.188
509.0	1.190
509.5	1.193
510.0	1.187
510.5	1.182
511.0	1.176
511.5	1.172
512.0	1.165
512.5	1.165
513.0	1.167
513.5	1.171
514.0	1.177
514.5	1.179
515.0	1.178
515.5	1.176
516.0	1.176
516.5	1.174
517.0	1.178
517.5	1.174
518.0	1.171
518.5	1.172
519.0	1.176
519.5	1.181
520.0	1.179
520.5	1.178
521.0	1.175
521.5	1.172
522.0	1.170
522.5	1.162
523.0	1.162
523.5	1.166
524.0	1.169
524.5	1.173
525.0	1.172
525.5	1.174
526.0	1.170
526.5	1.166
527.0	1.160
527.5	1.159
528.0	1.156
528.5	1.156
529.0	1.161
529.5	1.161
530.0	1.164
530.5	1.165
531.0	1.161
531.5	1.160
532.0	1.162
532.5	1.161
533.0	1.157
533.5	1.161
534.0	1.166
534.5	1.166
535.0	1.162
535.5	1.163
536.0	1.161
536.5	1.164
537.0	1.169
537.5	1.167
538.0	1.168
538.5	1.170
539.0	1.168
539.5	1.164
540.0	1.155
540.5	1.153
541.0	1.152
541.5	1.150
542.0	1.155
542.5	1.154
543.0	1.160
543.5	1.162
544.0	1.158
544.5	1.158
545.0	1.152
545.5	1.145
546.0	1.143
546.5	1.141
547.0	1.146
547.5	1.147
548.0	1.154
548.5	1.155
549.0	1.155
549.5	1.153
550.0	1.149
550.5	1.140
551.0	1.137
551.5	1.141
552.0	1.146
552.5	1.145
553.0	1.146
553.5	1.143
554.0	1.142
554.5	1.136
555.0	1.132
555.5	1.128
556.0	1.135
556.5	1.146
557.0	1.149
557.5	1.152
558.0	1.153
558.5	1.151
559.0	1.152
559.5	1.149
560.0	1.143
560.5	1.137
561.0	1.140
561.5	1.144
562.0	1.137
562.5	1.136
563.0	1.132
563.5	1.130
564.0	1.134
564.5	1.139
565.0	1.141
565.5	1.146
566.0	1.159
566.5	1.161
567.0	1.155
567.5	1.157
568.0	1.157
568.5	1.152
569.0	1.151
569.5	1.148
570.0	1.147
570.5	1.148
571.0	1.150
571.5	1.144
572.0	1.142
572.5	1.144
573.0	1.139
573.5	1.138
574.0	1.133
574.5	1.131
575.0	1.127
575.5	1.130
576.0	1.129
576.5	1.131
577.0	1.135
577.5	1.132
578.0	1.130
578.5	1.132
579.0	1.127
579.5	1.127
580.0	1.125
580.5	1.128
581.0	1.129
581.5	1.135
582.0	1.141
582.5	1.141
583.0	1.139
583.5	1.138
584.0	1.131
584.5	1.130
585.0	1.128
585.5	1.127
586.0	1.127
586.5	1.130
587.0	1.135
587.5	1.136
588.0	1.135
588.5	1.130
589.0	1.123
589.5	1.121
590.0	1.117
590.5	1.118
591.0	1.116
591.5	1.119
592.0	1.125
592.5	1.126
593.0	1.132
593.5	1.136
594.0	1.135
594.5	1.133
595.0	1.129
595.5	1.125
596.0	1.112
596.5	1.101
597.0	1.095
597.5	1.095
598.0	1.096
598.5	1.096
599.0	1.097
599.5	1.099
600.0	1.098
600.5	1.099
601.0	1.102
601.5	1.108
602.0	1.118
602.5	1.126
603.0	1.126
603.5	1.124
604.0	1.126
604.5	1.121
605.0	1.110
605.5	1.105
606.0	1.102
606.5	1.104
607.0	1.106
607.5	1.107
608.0	1.106
608.5	1.110
609.0	1.116
609.5	1.117
610.0	1.116
610.5	1.111
611.0	1.103
611.5	1.100
612.0	1.092
612.5	1.085
613.0	1.081
613.5	1.086
614.0	1.087
614.5	1.090
615.0	1.094
615.5	1.096
616.0	1.088
616.5	1.085
617.0	1.078
617.5	1.072
618.0	1.071
618.5	1.074
619.0	1.071
619.5	1.073
620.0	1.077
620.5	1.084
621.0	1.087
621.5	1.097
622.0	1.099
622.5	1.099
623.0	1.096
623.5	1.092
624.0	1.088
624.5	1.081
625.0	1.073
625.5	1.075
626.0	1.082
626.5	1.090
627.0	1.090
627.5	1.090
628.0	1.086
628.5	1.079
629.0	1.072
629.5	1.067
630.0	1.069
630.5	1.072
631.0	1.076
631.5	1.079
632.0	1.085
632.5	1.086
633.0	1.090
633.5	1.085
634.0	1.080
634.5	1.082
635.0	1.086
635.5	1.087
636.0	1.085
636.5	1.086
637.0	1.085
637.5	1.085
638.0	1.080
638.5	1.072
639.0	1.067
639.5	1.064
640.0	1.063
640.5	1.062
641.0	1.057
641.5	1.052
642.0	1.048
642.5	1.056
643.0	1.061
643.5	1.066
644.0	1.069
644.5	1.070
645.0	1.067
645.5	1.062
646.0	1.056
646.5	1.046
647.0	1.041
647.5	1.046
648.0	1.053
648.5	1.056
649.0	1.054
649.5	1.053
650.0	1.051
650.5	1.053
651.0	1.056
651.5	1.060
652.0	1.060
652.5	1.065
653.0	1.068
653.5	1.061
654.0	1.054
654.5	1.044
655.0	1.038
655.5	1.033
656.0	1.037
656.5	1.043
657.0	1.051
657.5	1.060
658.0	1.059
658.5	1.053
659.0	1.053
659.5	1.056
660.0	1.058
660.5	1.049
661.0	1.052
661.5	1.050
662.0	1.051
662.5	1.053
663.0	1.048
663.5	1.039
664.0	1.042
664.5	1.045
665.0	1.043
665.5	1.037
666.0	1.039
666.5	1.028
667.0	1.022
667.5	1.022
668.0	1.013
668.5	1.009
669.0	1.013
669.5	1.011
670.0	1.013
670.5	1.023
671.0	1.022
671.5	1.015
672.0	1.014
672.5	1.007
673.0	0.999
673.5	0.998
674.0	0.999
674.5	0.995
675.0	0.998
675.5	0.999
676.0	0.995
676.5	0.991
677.0	0.996
677.5	0.999
678.0	1.007
678.5	1.017
679.0	1.034
679.5	1.045
680.0	1.051
680.5	1.053
681.0	1.045
681.5	1.032
682.0	1.024
682.5	1.013
683.0	1.010
683.5	1.012
684.0	1.016
684.5	1.020
685.0	1.020
685.5	1.020
686.0	1.016
686.5	1.010
687.0	1.009
687.5	1.003
688.0	1.003
688.5	1.001
689.0	1.007
689.5	1.011
690.0	1.014
690.5	1.017
691.0	1.020
691.5	1.017
692.0	1.013
692.5	1.003
693.0	0.990
693.5	0.985
694.0	0.985
694.5	0.983
695.0	0.987
695.5	0.994
696.0	0.995
696.5	1.004
697.0	1.003
697.5	1.008
698.0	1.016
698.5	1.013
699.0	1.009
699.5	1.005
700.0	0.997
700.5	0.984
701.0	0.976
701.5	0.978
702.0	0.976
702.5	0.975
703.0	0.981
703.5	0.981
704.0	0.983
704.5	0.995
705.0	1.000
705.5	0.994
706.0	0.995
706.5	1.006
707.0	1.009
707.5	1.009
708.0	1.010
708.5	1.007
709.0	1.005
709.5	1.016
710.0	1.016
710.5	1.008
711.0	1.004
711.5	1.012
712.0	1.005
712.5	0.996
713.0	0.986
713.5	0.975
714.0	0.972
714.5	0.970
715.0	0.966
715.5	0.962
716.0	0.967
716.5	0.974
717.0	0.971
717.5	0.971
718.0	0.968
718.5	0.973
719.0	0.976
719.5	0.984
720.0	0.981
720.5	0.986
721.0	0.987
721.5	0.990
722.0	0.986
722.5	0.982
723.0	0.974
723.5	0.973
724.0	0.978
724.5	0.980
725.0	0.981
725.5	0.985
726.0	0.979
726.5	0.985
727.0	0.980
727.5	0.970
728.0	0.963
728.5	0.961
729.0	0.970
729.5	0.974
730.0	0.977
730.5	0.972
731.0	0.974
731.5	0.983
732.0	0.982
732.5	0.975
733.0	0.969
733.5	0.969
734.0	0.966
734.5	0.964
735.0	0.958
735.5	0.957
736.0	0.964
736.5	0.972
737.0	0.972
737.5	0.966
738.0	0.968
738.5	0.976
739.0	0.973
739.5	0.966
740.0	0.968
740.5	0.972
741.0	0.969
741.5	0.966
742.0	0.962
742.5	0.966
743.0	0.970
743.5	0.970
744.0	0.965
744.5	0.956
745.0	0.957
745.5	0.961
746.0	0.956
746.5	0.959
747.0	0.964
747.5	0.969
748.0	0.964
748.5	0.964
749.0	0.966
749.5	0.964
750.0	0.956
750.5	0.959
751.0	0.959
751.5	0.968
752.0	0.973
752.5	0.973
753.0	0.976
753.5	0.977
754.0	0.972
754.5	0.965
755.0	0.959
755.5	0.951
756.0	0.945
756.5	0.947
757.0	0.947
757.5	0.946
758.0	0.950
758.5	0.947
759.0	0.951
759.5	0.955
760.0	0.964
760.5	0.965
761.0	0.974
761.5	0.977
762.0	0.978
762.5	0.975
763.0	0.976
763.5	0.975
764.0	0.975
764.5	0.975
765.0	0.980
765.5	0.980
766.0	0.980
766.5	0.970
767.0	0.973
767.5	0.970
768.0	0.968
768.5	0.961
769.0	0.960
769.5	0.958
770.0	0.961
770.5	0.958
771.0	0.959
771.5	0.958
772.0	0.959
772.5	0.961
773.0	0.957
773.5	0.946
774.0	0.939
774.5	0.934
775.0	0.939
775.5	0.942
776.0	0.940
776.5	0.928
777.0	0.918
777.5	0.915
778.0	0.906
778.5	0.899
779.0	0.895
779.5	0.913
780.0	0.932
780.5	0.948
781.0	0.963
781.5	0.965
782.0	0.967
782.5	0.970
783.0	0.964
783.5	0.962
784.0	0.955
784.5	0.963
785.0	0.964
785.5	0.971
786.0	0.975
786.5	0.970
787.0	0.967
787.5	0.965
788.0	0.961
788.5	0.953
789.0	0.939
789.5	0.928
790.0	0.917
790.5	0.922
791.0	0.922
791.5	0.928
792.0	0.924
792.5	0.932
793.0	0.941
793.5	0.941
794.0	0.941
794.5	0.941
795.0	0.942
795.5	0.949
796.0	0.953
796.5	0.951
797.0	0.929
797.5	0.926
798.0	0.915
798.5	0.912
799.0	0.911
799.5	0.907
800.0	0.916
800.5	0.921
801.0	0.926
801.5	0.920
802.0	0.913
802.5	0.917
803.0	0.921
803.5	0.928
804.0	0.933
804.5	0.940
805.0	0.948
805.5	0.946
806.0	0.948
806.5	0.935
807.0	0.926
807.5	0.918
808.0	0.912
808.5	0.905
809.0	0.892
809.5	0.891
810.0	0.889
810.5	0.888
811.0	0.902
811.5	0.906
812.0	0.915
812.5	0.928
813.0	0.930
813.5	0.918
814.0	0.906
814.5	0.891
815.0	0.882
815.5	0.876
816.0	0.891
816.5	0.896
817.0	0.914
817.5	0.931
818.0	0.931
818.5	0.928
819.0	0.934
819.5	0.924
820.0	0.927
820.5	0.927
821.0	0.933
821.5	0.937
822.0	0.947
822.5	0.957
823.0	0.961
823.5	0.962
824.0	0.956
824.5	0.935
825.0	0.915
825.5	0.895
826.0	0.883
826.5	0.880
827.0	0.888
827.5	0.914
828.0	0.936
828.5	0.947
829.0	0.947
829.5	0.946
830.0	0.935
830.5	0.918
831.0	0.904
831.5	0.898
832.0	0.896
832.5	0.901
833.0	0.906
833.5	0.905
834.0	0.904
834.5	0.910
835.0	0.907
835.5	0.904
836.0	0.900
836.5	0.908
837.0	0.914
837.5	0.915
838.0	0.915
838.5	0.904
839.0	0.896
839.5	0.898
840.0	0.894
840.5	0.903
841.0	0.918
841.5	0.930
842.0	0.935
842.5	0.932
843.0	0.926
843.5	0.913
844.0	0.906
844.5	0.911
845.0	0.896
845.5	0.890
846.0	0.886
846.5	0.866
847.0	0.846
847.5	0.835
848.0	0.839
848.5	0.853
849.0	0.882
849.5	0.915
850.0	0.921


2
5/21/2024 5:41 PM
Wavelength (nm)	10mm Absorbance
//WLCalib: Shift 	0.10667	
//WLCalib: 261S 	-0.59000	
//WLCalib: 362S 	-0.96000	
//WLCalib: 484S 	-0.30000	
//WLCalib: 529S 	-0.11000	
//WLCalib: 823S 	-0.54000	
//QSpecEnd: 
190.0	4.563
190.5	4.537
191.0	4.590
191.5	4.637
192.0	4.891
192.5	4.904
193.0	5.160
193.5	5.416
194.0	5.529
194.5	5.824
195.0	5.926
195.5	6.134
196.0	6.273
196.5	6.391
197.0	6.618
197.5	6.783
198.0	7.049
198.5	7.267
199.0	7.622
199.5	8.014
200.0	8.385
200.5	8.855
201.0	9.344
201.5	9.833
202.0	10.444
202.5	11.005
203.0	11.615
203.5	12.159
204.0	12.689
204.5	13.208
205.0	13.538
205.5	13.831
206.0	14.070
206.5	14.263
207.0	14.417
207.5	14.501
208.0	14.609
208.5	14.689
209.0	14.785
209.5	14.872
210.0	14.906
210.5	14.980
211.0	15.066
211.5	15.118
212.0	15.198
212.5	15.222
213.0	15.260
213.5	15.309
214.0	15.383
214.5	15.463
215.0	15.578
215.5	15.710
216.0	15.848
216.5	16.000
217.0	16.196
217.5	16.397
218.0	16.637
218.5	16.933
219.0	17.300
219.5	17.721
220.0	18.152
220.5	18.570
221.0	18.952
221.5	19.531
222.0	19.716
222.5	19.857
223.0	20.023
223.5	20.202
224.0	20.599
224.5	20.943
225.0	20.996
225.5	21.012
226.0	21.072
226.5	21.081
227.0	20.507
227.5	20.128
228.0	19.668
228.5	19.485
229.0	19.305
229.5	18.963
230.0	18.553
230.5	18.235
231.0	17.944
231.5	17.525
232.0	17.037
232.5	16.572
233.0	16.036
233.5	15.635
234.0	15.100
234.5	14.652
235.0	14.196
235.5	13.817
236.0	13.453
236.5	13.108
237.0	12.814
237.5	12.488
238.0	12.182
238.5	11.875
239.0	11.551
239.5	11.256
240.0	10.960
240.5	10.735
241.0	10.511
241.5	10.309
242.0	10.149
242.5	9.996
243.0	9.872
243.5	9.753
244.0	9.624
244.5	9.489
245.0	9.335
245.5	9.179
246.0	9.026
246.5	8.888
247.0	8.785
247.5	8.707
248.0	8.647
248.5	8.594
249.0	8.546
249.5	8.497
250.0	8.426
250.5	8.353
251.0	8.298
251.5	8.236
252.0	8.178
252.5	8.139
253.0	8.090
253.5	8.046
254.0	8.001
254.5	7.949
255.0	7.893
255.5	7.854
256.0	7.841
256.5	7.825
257.0	7.814
257.5	7.807
258.0	7.788
258.5	7.767
259.0	7.735
259.5	7.712
260.0	7.683
260.5	7.664
261.0	7.645
261.5	7.633
262.0	7.631
262.5	7.625
263.0	7.626
263.5	7.617
264.0	7.598
264.5	7.588
265.0	7.588
265.5	7.579
266.0	7.571
266.5	7.572
267.0	7.578
267.5	7.565
268.0	7.567
268.5	7.546
269.0	7.535
269.5	7.518
270.0	7.513
270.5	7.496
271.0	7.480
271.5	7.456
272.0	7.432
272.5	7.404
273.0	7.374
273.5	7.334
274.0	7.308
274.5	7.266
275.0	7.237
275.5	7.208
276.0	7.160
276.5	7.120
277.0	7.077
277.5	7.023
278.0	6.958
278.5	6.903
279.0	6.850
279.5	6.783
280.0	6.718
280.5	6.651
281.0	6.566
281.5	6.495
282.0	6.423
282.5	6.359
283.0	6.295
283.5	6.232
284.0	6.165
284.5	6.099
285.0	6.026
285.5	5.951
286.0	5.879
286.5	5.813
287.0	5.754
287.5	5.687
288.0	5.618
288.5	5.553
289.0	5.484
289.5	5.417
290.0	5.343
290.5	5.273
291.0	5.212
291.5	5.153
292.0	5.088
292.5	5.023
293.0	4.969
293.5	4.911
294.0	4.858
294.5	4.808
295.0	4.751
295.5	4.702
296.0	4.657
296.5	4.601
297.0	4.538
297.5	4.490
298.0	4.444
298.5	4.399
299.0	4.358
299.5	4.315
300.0	4.268
300.5	4.223
301.0	4.179
301.5	4.130
302.0	4.094
302.5	4.057
303.0	4.026
303.5	3.993
304.0	3.952
304.5	3.915
305.0	3.879
305.5	3.840
306.0	3.802
306.5	3.767
307.0	3.739
307.5	3.704
308.0	3.675
308.5	3.643
309.0	3.623
309.5	3.596
310.0	3.571
310.5	3.548
311.0	3.523
311.5	3.498
312.0	3.476
312.5	3.448
313.0	3.425
313.5	3.405
314.0	3.390
314.5	3.362
315.0	3.340
315.5	3.317
316.0	3.292
316.5	3.262
317.0	3.241
317.5	3.220
318.0	3.203
318.5	3.189
319.0	3.172
319.5	3.157
320.0	3.141
320.5	3.119
321.0	3.098
321.5	3.071
322.0	3.042
322.5	3.021
323.0	2.997
323.5	2.972
324.0	2.940
324.5	2.918
325.0	2.903
325.5	2.884
326.0	2.859
326.5	2.836
327.0	2.811
327.5	2.793
328.0	2.776
328.5	2.749
329.0	2.724
329.5	2.704
330.0	2.687
330.5	2.661
331.0	2.635
331.5	2.614
332.0	2.583
332.5	2.556
333.0	2.536
333.5	2.513
334.0	2.491
334.5	2.462
335.0	2.439
335.5	2.410
336.0	2.380
336.5	2.350
337.0	2.313
337.5	2.281
338.0	2.257
338.5	2.233
339.0	2.205
339.5	2.171
340.0	2.147
340.5	2.112
341.0	2.080
341.5	2.053
342.0	2.024
342.5	1.996
343.0	1.973
343.5	1.950
344.0	1.924
344.5	1.891
345.0	1.862
345.5	1.830
346.0	1.806
346.5	1.779
347.0	1.748
347.5	1.727
348.0	1.705
348.5	1.679
349.0	1.655
349.5	1.626
350.0	1.602
350.5	1.581
351.0	1.558
351.5	1.528
352.0	1.501
352.5	1.480
353.0	1.455
353.5	1.425
354.0	1.399
354.5	1.373
355.0	1.349
355.5	1.330
356.0	1.309
356.5	1.289
357.0	1.273
357.5	1.256
358.0	1.235
358.5	1.217
359.0	1.196
359.5	1.173
360.0	1.150
360.5	1.129
361.0	1.111
361.5	1.095
362.0	1.081
362.5	1.070
363.0	1.060
363.5	1.053
364.0	1.040
364.5	1.028
365.0	1.013
365.5	0.995
366.0	0.980
366.5	0.966
367.0	0.953
367.5	0.943
368.0	0.931
368.5	0.918
369.0	0.906
369.5	0.896
370.0	0.884
370.5	0.873
371.0	0.867
371.5	0.859
372.0	0.853
372.5	0.845
373.0	0.830
373.5	0.820
374.0	0.811
374.5	0.803
375.0	0.792
375.5	0.785
376.0	0.777
376.5	0.772
377.0	0.767
377.5	0.761
378.0	0.756
378.5	0.749
379.0	0.745
379.5	0.739
380.0	0.734
380.5	0.732
381.0	0.720
381.5	0.714
382.0	0.704
382.5	0.698
383.0	0.693
383.5	0.682
384.0	0.677
384.5	0.672
385.0	0.668
385.5	0.669
386.0	0.664
386.5	0.657
387.0	0.657
387.5	0.653
388.0	0.644
388.5	0.635
389.0	0.627
389.5	0.622
390.0	0.620
390.5	0.622
391.0	0.624
391.5	0.623
392.0	0.626
392.5	0.622
393.0	0.617
393.5	0.610
394.0	0.604
394.5	0.597
395.0	0.593
395.5	0.592
396.0	0.590
396.5	0.587
397.0	0.584
397.5	0.581
398.0	0.578
398.5	0.572
399.0	0.571
399.5	0.565
400.0	0.564
400.5	0.563
401.0	0.564
401.5	0.559
402.0	0.555
402.5	0.552
403.0	0.549
403.5	0.540
404.0	0.536
404.5	0.531
405.0	0.526
405.5	0.522
406.0	0.519
406.5	0.516
407.0	0.513
407.5	0.514
408.0	0.515
408.5	0.510
409.0	0.503
409.5	0.502
410.0	0.501
410.5	0.494
411.0	0.490
411.5	0.489
412.0	0.484
412.5	0.485
413.0	0.489
413.5	0.488
414.0	0.486
414.5	0.488
415.0	0.488
415.5	0.483
416.0	0.481
416.5	0.476
417.0	0.469
417.5	0.466
418.0	0.464
418.5	0.459
419.0	0.457
419.5	0.455
420.0	0.452
420.5	0.449
421.0	0.446
421.5	0.440
422.0	0.435
422.5	0.431
423.0	0.427
423.5	0.426
424.0	0.427
424.5	0.432
425.0	0.434
425.5	0.433
426.0	0.430
426.5	0.428
427.0	0.427
427.5	0.423
428.0	0.421
428.5	0.420
429.0	0.418
429.5	0.415
430.0	0.408
430.5	0.400
431.0	0.396
431.5	0.395
432.0	0.394
432.5	0.392
433.0	0.395
433.5	0.397
434.0	0.392
434.5	0.388
435.0	0.388
435.5	0.385
436.0	0.385
436.5	0.382
437.0	0.378
437.5	0.373
438.0	0.372
438.5	0.368
439.0	0.366
439.5	0.366
440.0	0.370
440.5	0.369
441.0	0.371
441.5	0.371
442.0	0.369
442.5	0.364
443.0	0.361
443.5	0.355
444.0	0.353
444.5	0.348
445.0	0.346
445.5	0.345
446.0	0.349
446.5	0.350
447.0	0.348
447.5	0.347
448.0	0.347
448.5	0.346
449.0	0.344
449.5	0.339
450.0	0.337
450.5	0.341
451.0	0.341
451.5	0.336
452.0	0.335
452.5	0.333
453.0	0.331
453.5	0.331
454.0	0.330
454.5	0.328
455.0	0.333
455.5	0.337
456.0	0.337
456.5	0.333
457.0	0.331
457.5	0.324
458.0	0.318
458.5	0.315
459.0	0.313
459.5	0.310
460.0	0.313
460.5	0.315
461.0	0.322
461.5	0.323
462.0	0.322
462.5	0.321
463.0	0.319
463.5	0.318
464.0	0.314
464.5	0.308
465.0	0.307
465.5	0.307
466.0	0.307
466.5	0.307
467.0	0.303
467.5	0.303
468.0	0.300
468.5	0.297
469.0	0.295
469.5	0.293
470.0	0.293
470.5	0.294
471.0	0.292
471.5	0.291
472.0	0.288
472.5	0.286
473.0	0.284
473.5	0.285
474.0	0.287
474.5	0.291
475.0	0.297
475.5	0.300
476.0	0.303
476.5	0.302
477.0	0.300
477.5	0.296
478.0	0.293
478.5	0.292
479.0	0.289
479.5	0.285
480.0	0.283
480.5	0.281
481.0	0.283
481.5	0.284
482.0	0.284
482.5	0.283
483.0	0.286
483.5	0.286
484.0	0.285
484.5	0.285
485.0	0.282
485.5	0.280
486.0	0.276
486.5	0.274
487.0	0.275
487.5	0.276
488.0	0.278
488.5	0.278
489.0	0.282
489.5	0.285
490.0	0.286
490.5	0.284
491.0	0.280
491.5	0.278
492.0	0.276
492.5	0.273
493.0	0.273
493.5	0.274
494.0	0.279
494.5	0.282
495.0	0.282
495.5	0.281
496.0	0.275
496.5	0.266
497.0	0.259
497.5	0.253
498.0	0.255
498.5	0.261
499.0	0.269
499.5	0.272
500.0	0.271
500.5	0.273
501.0	0.273
501.5	0.269
502.0	0.266
502.5	0.270
503.0	0.272
503.5	0.276
504.0	0.276
504.5	0.272
505.0	0.266
505.5	0.272
506.0	0.273
506.5	0.270
507.0	0.269
507.5	0.273
508.0	0.271
508.5	0.269
509.0	0.267
509.5	0.265
510.0	0.262
510.5	0.262
511.0	0.258
511.5	0.258
512.0	0.259
512.5	0.263
513.0	0.263
513.5	0.263
514.0	0.268
514.5	0.270
515.0	0.268
515.5	0.265
516.0	0.261
516.5	0.260
517.0	0.262
517.5	0.263
518.0	0.261
518.5	0.259
519.0	0.258
519.5	0.255
520.0	0.251
520.5	0.250
521.0	0.250
521.5	0.253
522.0	0.256
522.5	0.260
523.0	0.261
523.5	0.263
524.0	0.262
524.5	0.259
525.0	0.252
525.5	0.252
526.0	0.250
526.5	0.250
527.0	0.252
527.5	0.257
528.0	0.256
528.5	0.260
529.0	0.263
529.5	0.262
530.0	0.266
530.5	0.270
531.0	0.268
531.5	0.269
532.0	0.268
532.5	0.269
533.0	0.261
533.5	0.260
534.0	0.260
534.5	0.257
535.0	0.261
535.5	0.264
536.0	0.266
536.5	0.269
537.0	0.271
537.5	0.269
538.0	0.268
538.5	0.268
539.0	0.267
539.5	0.265
540.0	0.259
540.5	0.258
541.0	0.258
541.5	0.256
542.0	0.255
542.5	0.250
543.0	0.251
543.5	0.254
544.0	0.255
544.5	0.260
545.0	0.257
545.5	0.252
546.0	0.248
546.5	0.244
547.0	0.243
547.5	0.240
548.0	0.244
548.5	0.245
549.0	0.251
549.5	0.259
550.0	0.259
550.5	0.252
551.0	0.249
551.5	0.249
552.0	0.247
552.5	0.239
553.0	0.235
553.5	0.228
554.0	0.225
554.5	0.225
555.0	0.226
555.5	0.227
556.0	0.235
556.5	0.244
557.0	0.247
557.5	0.250
558.0	0.249
558.5	0.248
559.0	0.247
559.5	0.247
560.0	0.244
560.5	0.238
561.0	0.236
561.5	0.235
562.0	0.228
562.5	0.223
563.0	0.224
563.5	0.227
564.0	0.238
564.5	0.242
565.0	0.246
565.5	0.249
566.0	0.255
566.5	0.255
567.0	0.248
567.5	0.249
568.0	0.253
568.5	0.252
569.0	0.248
569.5	0.238
570.0	0.233
570.5	0.230
571.0	0.229
571.5	0.225
572.0	0.228
572.5	0.237
573.0	0.240
573.5	0.241
574.0	0.240
574.5	0.238
575.0	0.235
575.5	0.233
576.0	0.227
576.5	0.228
577.0	0.231
577.5	0.230
578.0	0.229
578.5	0.233
579.0	0.230
579.5	0.228
580.0	0.228
580.5	0.228
581.0	0.230
581.5	0.233
582.0	0.238
582.5	0.238
583.0	0.241
583.5	0.247
584.0	0.237
584.5	0.229
585.0	0.227
585.5	0.223
586.0	0.221
586.5	0.219
587.0	0.223
587.5	0.223
588.0	0.224
588.5	0.222
589.0	0.214
589.5	0.211
590.0	0.214
590.5	0.216
591.0	0.218
591.5	0.226
592.0	0.236
592.5	0.233
593.0	0.232
593.5	0.227
594.0	0.224
594.5	0.224
595.0	0.222
595.5	0.215
596.0	0.208
596.5	0.203
597.0	0.199
597.5	0.197
598.0	0.201
598.5	0.205
599.0	0.209
599.5	0.208
600.0	0.205
600.5	0.199
601.0	0.195
601.5	0.190
602.0	0.193
602.5	0.200
603.0	0.209
603.5	0.220
604.0	0.228
604.5	0.231
605.0	0.226
605.5	0.222
606.0	0.212
606.5	0.200
607.0	0.194
607.5	0.190
608.0	0.191
608.5	0.198
609.0	0.204
609.5	0.208
610.0	0.208
610.5	0.203
611.0	0.192
611.5	0.184
612.0	0.174
612.5	0.172
613.0	0.171
613.5	0.175
614.0	0.182
614.5	0.187
615.0	0.193
615.5	0.193
616.0	0.192
616.5	0.186
617.0	0.184
617.5	0.183
618.0	0.186
618.5	0.186
619.0	0.192
619.5	0.194
620.0	0.197
620.5	0.204
621.0	0.203
621.5	0.205
622.0	0.206
622.5	0.205
623.0	0.206
623.5	0.199
624.0	0.192
624.5	0.181
625.0	0.176
625.5	0.178
626.0	0.181
626.5	0.188
627.0	0.189
627.5	0.196
628.0	0.196
628.5	0.188
629.0	0.175
629.5	0.172
630.0	0.174
630.5	0.172
631.0	0.181
631.5	0.190
632.0	0.198
632.5	0.202
633.0	0.202
633.5	0.200
634.0	0.193
634.5	0.192
635.0	0.188
635.5	0.179
636.0	0.178
636.5	0.180
637.0	0.179
637.5	0.180
638.0	0.182
638.5	0.185
639.0	0.186
639.5	0.184
640.0	0.179
640.5	0.175
641.0	0.171
641.5	0.168
642.0	0.167
642.5	0.172
643.0	0.173
643.5	0.176
644.0	0.181
644.5	0.178
645.0	0.172
645.5	0.167
646.0	0.165
646.5	0.162
647.0	0.159
647.5	0.163
648.0	0.163
648.5	0.165
649.0	0.169
649.5	0.165
650.0	0.162
650.5	0.167
651.0	0.172
651.5	0.175
652.0	0.170
652.5	0.172
653.0	0.173
653.5	0.168
654.0	0.163
654.5	0.155
655.0	0.146
655.5	0.146
656.0	0.146
656.5	0.148
657.0	0.149
657.5	0.157
658.0	0.160
658.5	0.158
659.0	0.158
659.5	0.162
660.0	0.161
660.5	0.162
661.0	0.170
661.5	0.178
662.0	0.182
662.5	0.186
663.0	0.187
663.5	0.177
664.0	0.170
664.5	0.166
665.0	0.152
665.5	0.143
666.0	0.142
666.5	0.137
667.0	0.135
667.5	0.147
668.0	0.160
668.5	0.164
669.0	0.176
669.5	0.177
670.0	0.166
670.5	0.162
671.0	0.142
671.5	0.123
672.0	0.112
672.5	0.105
673.0	0.101
673.5	0.104
674.0	0.112
674.5	0.116
675.0	0.130
675.5	0.144
676.0	0.145
676.5	0.150
677.0	0.153
677.5	0.152
678.0	0.152
678.5	0.158
679.0	0.158
679.5	0.165
680.0	0.165
680.5	0.160
681.0	0.148
681.5	0.136
682.0	0.127
682.5	0.122
683.0	0.125
683.5	0.143
684.0	0.156
684.5	0.165
685.0	0.162
685.5	0.158
686.0	0.155
686.5	0.147
687.0	0.143
687.5	0.137
688.0	0.139
688.5	0.151
689.0	0.156
689.5	0.157
690.0	0.153
690.5	0.152
691.0	0.159
691.5	0.150
692.0	0.142
692.5	0.129
693.0	0.123
693.5	0.122
694.0	0.120
694.5	0.119
695.0	0.121
695.5	0.133
696.0	0.142
696.5	0.143
697.0	0.138
697.5	0.135
698.0	0.140
698.5	0.132
699.0	0.121
699.5	0.112
700.0	0.106
700.5	0.105
701.0	0.101
701.5	0.105
702.0	0.107
702.5	0.108
703.0	0.114
703.5	0.112
704.0	0.115
704.5	0.125
705.0	0.131
705.5	0.131
706.0	0.131
706.5	0.136
707.0	0.137
707.5	0.137
708.0	0.140
708.5	0.135
709.0	0.135
709.5	0.143
710.0	0.143
710.5	0.142
711.0	0.135
711.5	0.132
712.0	0.128
712.5	0.133
713.0	0.130
713.5	0.122
714.0	0.119
714.5	0.125
715.0	0.131
715.5	0.133
716.0	0.132
716.5	0.128
717.0	0.123
717.5	0.131
718.0	0.131
718.5	0.125
719.0	0.121
719.5	0.120
720.0	0.118
720.5	0.114
721.0	0.111
721.5	0.109
722.0	0.115
722.5	0.117
723.0	0.118
723.5	0.111
724.0	0.113
724.5	0.114
725.0	0.121
725.5	0.126
726.0	0.119
726.5	0.123
727.0	0.124
727.5	0.111
728.0	0.109
728.5	0.102
729.0	0.109
729.5	0.118
730.0	0.126
730.5	0.123
731.0	0.118
731.5	0.126
732.0	0.122
732.5	0.111
733.0	0.106
733.5	0.103
734.0	0.100
734.5	0.102
735.0	0.099
735.5	0.100
736.0	0.105
736.5	0.107
737.0	0.097
737.5	0.087
738.0	0.090
738.5	0.097
739.0	0.101
739.5	0.101
740.0	0.103
740.5	0.104
741.0	0.099
741.5	0.088
742.0	0.079
742.5	0.083
743.0	0.091
743.5	0.102
744.0	0.111
744.5	0.110
745.0	0.110
745.5	0.114
746.0	0.114
746.5	0.113
747.0	0.116
747.5	0.108
748.0	0.092
748.5	0.087
749.0	0.085
749.5	0.085
750.0	0.084
750.5	0.097
751.0	0.111
751.5	0.118
752.0	0.123
752.5	0.116
753.0	0.114
753.5	0.107
754.0	0.097
754.5	0.104
755.0	0.101
755.5	0.097
756.0	0.103
756.5	0.107
757.0	0.113
757.5	0.120
758.0	0.128
758.5	0.127
759.0	0.134
759.5	0.139
760.0	0.129
760.5	0.118
761.0	0.124
761.5	0.121
762.0	0.113
762.5	0.107
763.0	0.106
763.5	0.117
764.0	0.124
764.5	0.129
765.0	0.143
765.5	0.153
766.0	0.156
766.5	0.151
767.0	0.136
767.5	0.117
768.0	0.098
768.5	0.084
769.0	0.075
769.5	0.075
770.0	0.080
770.5	0.088
771.0	0.105
771.5	0.122
772.0	0.127
772.5	0.130
773.0	0.116
773.5	0.098
774.0	0.087
774.5	0.069
775.0	0.068
775.5	0.077
776.0	0.086
776.5	0.089
777.0	0.085
777.5	0.087
778.0	0.079
778.5	0.072
779.0	0.069
779.5	0.082
780.0	0.104
780.5	0.114
781.0	0.120
781.5	0.114
782.0	0.107
782.5	0.113
783.0	0.113
783.5	0.115
784.0	0.120
784.5	0.134
785.0	0.139
785.5	0.137
786.0	0.133
786.5	0.117
787.0	0.109
787.5	0.109
788.0	0.113
788.5	0.115
789.0	0.106
789.5	0.096
790.0	0.091
790.5	0.087
791.0	0.088
791.5	0.086
792.0	0.081
792.5	0.092
793.0	0.109
793.5	0.111
794.0	0.109
794.5	0.106
795.0	0.101
795.5	0.091
796.0	0.092
796.5	0.074
797.0	0.057
797.5	0.059
798.0	0.058
798.5	0.064
799.0	0.079
799.5	0.078
800.0	0.079
800.5	0.075
801.0	0.088
801.5	0.082
802.0	0.084
802.5	0.088
803.0	0.094
803.5	0.110
804.0	0.123
804.5	0.121
805.0	0.125
805.5	0.127
806.0	0.134
806.5	0.128
807.0	0.117
807.5	0.093
808.0	0.083
808.5	0.074
809.0	0.062
809.5	0.060
810.0	0.064
810.5	0.069
811.0	0.077
811.5	0.085
812.0	0.073
812.5	0.067
813.0	0.070
813.5	0.059
814.0	0.057
814.5	0.062
815.0	0.071
815.5	0.071
816.0	0.076
816.5	0.079
817.0	0.072
817.5	0.075
818.0	0.073
818.5	0.067
819.0	0.075
819.5	0.079
820.0	0.089
820.5	0.095
821.0	0.107
821.5	0.120
822.0	0.125
822.5	0.135
823.0	0.146
823.5	0.148
824.0	0.145
824.5	0.128
825.0	0.106
825.5	0.088
826.0	0.074
826.5	0.063
827.0	0.056
827.5	0.075
828.0	0.097
828.5	0.111
829.0	0.121
829.5	0.127
830.0	0.127
830.5	0.120
831.0	0.107
831.5	0.099
832.0	0.090
832.5	0.096
833.0	0.091
833.5	0.081
834.0	0.076
834.5	0.075
835.0	0.073
835.5	0.070
836.0	0.062
836.5	0.078
837.0	0.081
837.5	0.092
838.0	0.089
838.5	0.080
839.0	0.079
839.5	0.074
840.0	0.068
840.5	0.070
841.0	0.080
841.5	0.105
842.0	0.114
842.5	0.114
843.0	0.110
843.5	0.115
844.0	0.115
844.5	0.115
845.0	0.094
845.5	0.092
846.0	0.087
846.5	0.082
847.0	0.055
847.5	0.042
848.0	0.057
848.5	0.080
849.0	0.115
849.5	0.152
850.0	0.159


3
5/21/2024 5:42 PM
Wavelength (nm)	10mm Absorbance
//WLCalib: Shift 	0.10667	
//WLCalib: 261S 	-0.59000	
//WLCalib: 362S 	-0.96000	
//WLCalib: 484S 	-0.30000	
//WLCalib: 529S 	-0.11000	
//WLCalib: 823S 	-0.54000	
//QSpecEnd: 
190.0	0.232
190.5	0.048
191.0	0.019
191.5	-0.109
192.0	-0.209
192.5	-0.151
193.0	-0.001
193.5	-0.019
194.0	-0.152
194.5	-0.150
195.0	-0.151
195.5	-0.258
196.0	-0.278
196.5	-0.404
197.0	-0.490
197.5	-0.417
198.0	-0.410
198.5	-0.412
199.0	-0.663
199.5	-0.505
200.0	-0.212
200.5	0.186
201.0	0.814
201.5	1.116
202.0	1.607
202.5	2.146
203.0	2.750
203.5	3.095
204.0	3.440
204.5	4.205
205.0	4.828
205.5	5.513
206.0	6.101
206.5	6.415
207.0	6.941
207.5	7.337
208.0	7.655
208.5	7.748
209.0	7.934
209.5	8.136
210.0	8.273
210.5	8.513
211.0	8.778
211.5	9.124
212.0	9.346
212.5	9.577
213.0	9.653
213.5	9.717
214.0	9.724
214.5	9.672
215.0	9.653
215.5	9.692
216.0	9.794
216.5	9.960
217.0	10.123
217.5	10.407
218.0	10.699
218.5	10.992
219.0	11.356
219.5	11.793
220.0	12.181
220.5	12.570
221.0	12.957
221.5	13.312
222.0	13.631
222.5	13.959
223.0	14.242
223.5	14.520
224.0	14.829
224.5	15.166
225.0	15.568
225.5	16.120
226.0	16.939
226.5	18.049
227.0	19.321
227.5	20.618
228.0	21.803
228.5	22.746
229.0	23.391
229.5	23.685
230.0	23.647
230.5	23.372
231.0	22.998
231.5	22.641
232.0	22.334
232.5	22.095
233.0	21.947
233.5	21.935
234.0	22.085
234.5	22.314
235.0	22.543
235.5	22.723
236.0	22.914
236.5	23.077
237.0	23.244
237.5	23.447
238.0	23.290
238.5	23.080
239.0	22.727
239.5	22.132
240.0	21.464
240.5	20.668
241.0	19.832
241.5	19.184
242.0	18.657
242.5	18.289
243.0	17.800
243.5	17.626
244.0	17.425
244.5	17.124
245.0	16.807
245.5	16.386
246.0	16.001
246.5	15.723
247.0	15.428
247.5	15.256
248.0	15.131
248.5	15.128
249.0	15.070
249.5	14.965
250.0	14.888
250.5	14.802
251.0	14.688
251.5	14.625
252.0	14.585
252.5	14.573
253.0	14.591
253.5	14.588
254.0	14.596
254.5	14.644
255.0	14.740
255.5	14.808
256.0	14.864
256.5	14.958
257.0	15.048
257.5	15.101
258.0	15.145
258.5	15.142
259.0	15.210
259.5	15.277
260.0	15.367
260.5	15.365
261.0	15.466
261.5	15.502
262.0	15.595
262.5	15.615
263.0	15.707
263.5	15.738
264.0	15.832
264.5	15.915
265.0	15.973
265.5	15.971
266.0	16.071
266.5	16.134
267.0	16.251
267.5	16.407
268.0	16.509
268.5	16.574
269.0	16.676
269.5	16.709
270.0	16.759
270.5	16.684
271.0	16.614
271.5	16.544
272.0	16.463
272.5	16.405
273.0	16.358
273.5	16.299
274.0	16.252
274.5	16.203
275.0	16.140
275.5	16.054
276.0	16.034
276.5	15.935
277.0	15.957
277.5	15.965
278.0	15.954
278.5	15.847
279.0	15.723
279.5	15.526
280.0	15.331
280.5	15.192
281.0	15.040
281.5	14.915
282.0	14.865
282.5	14.748
283.0	14.605
283.5	14.450
284.0	14.297
284.5	14.117
285.0	13.973
285.5	13.841
286.0	13.729
286.5	13.627
287.0	13.491
287.5	13.324
288.0	13.147
288.5	12.986
289.0	12.832
289.5	12.634
290.0	12.492
290.5	12.370
291.0	12.260
291.5	12.134
292.0	11.988
292.5	11.858
293.0	11.736
293.5	11.620
294.0	11.512
294.5	11.414
295.0	11.322
295.5	11.227
296.0	11.124
296.5	11.008
297.0	10.875
297.5	10.776
298.0	10.669
298.5	10.556
299.0	10.463
299.5	10.389
300.0	10.299
300.5	10.208
301.0	10.119
301.5	10.034
302.0	9.956
302.5	9.892
303.0	9.835
303.5	9.767
304.0	9.709
304.5	9.657
305.0	9.576
305.5	9.480
306.0	9.390
306.5	9.307
307.0	9.221
307.5	9.158
308.0	9.100
308.5	9.056
309.0	9.034
309.5	8.996
310.0	8.939
310.5	8.889
311.0	8.851
311.5	8.810
312.0	8.746
312.5	8.689
313.0	8.630
313.5	8.587
314.0	8.553
314.5	8.513
315.0	8.463
315.5	8.422
316.0	8.386
316.5	8.353
317.0	8.287
317.5	8.220
318.0	8.166
318.5	8.117
319.0	8.082
319.5	8.037
320.0	7.990
320.5	7.957
321.0	7.922
321.5	7.890
322.0	7.840
322.5	7.800
323.0	7.764
323.5	7.714
324.0	7.671
324.5	7.614
325.0	7.573
325.5	7.540
326.0	7.493
326.5	7.449
327.0	7.386
327.5	7.332
328.0	7.265
328.5	7.195
329.0	7.128
329.5	7.064
330.0	7.009
330.5	6.947
331.0	6.882
331.5	6.816
332.0	6.740
332.5	6.671
333.0	6.606
333.5	6.539
334.0	6.471
334.5	6.413
335.0	6.350
335.5	6.290
336.0	6.221
336.5	6.142
337.0	6.058
337.5	5.968
338.0	5.881
338.5	5.785
339.0	5.696
339.5	5.616
340.0	5.537
340.5	5.466
341.0	5.390
341.5	5.308
342.0	5.226
342.5	5.141
343.0	5.053
343.5	4.974
344.0	4.889
344.5	4.800
345.0	4.707
345.5	4.618
346.0	4.535
346.5	4.447
347.0	4.363
347.5	4.281
348.0	4.200
348.5	4.120
349.0	4.040
349.5	3.960
350.0	3.885
350.5	3.812
351.0	3.737
351.5	3.650
352.0	3.574
352.5	3.501
353.0	3.426
353.5	3.350
354.0	3.285
354.5	3.217
355.0	3.158
355.5	3.092
356.0	3.024
356.5	2.955
357.0	2.895
357.5	2.839
358.0	2.782
358.5	2.728
359.0	2.667
359.5	2.608
360.0	2.555
360.5	2.499
361.0	2.447
361.5	2.399
362.0	2.358
362.5	2.320
363.0	2.277
363.5	2.238
364.0	2.192
364.5	2.151
365.0	2.113
365.5	2.071
366.0	2.033
366.5	2.002
367.0	1.965
367.5	1.931
368.0	1.894
368.5	1.861
369.0	1.828
369.5	1.797
370.0	1.771
370.5	1.748
371.0	1.729
371.5	1.711
372.0	1.686
372.5	1.668
373.0	1.640
373.5	1.616
374.0	1.591
374.5	1.566
375.0	1.539
375.5	1.515
376.0	1.495
376.5	1.480
377.0	1.468
377.5	1.455
378.0	1.440
378.5	1.422
379.0	1.405
379.5	1.390
380.0	1.369
380.5	1.356
381.0	1.341
381.5	1.337
382.0	1.327
382.5	1.316
383.0	1.302
383.5	1.287
384.0	1.273
384.5	1.258
385.0	1.241
385.5	1.231
386.0	1.217
386.5	1.211
387.0	1.204
387.5	1.200
388.0	1.192
388.5	1.181
389.0	1.173
389.5	1.163
390.0	1.151
390.5	1.144
391.0	1.136
391.5	1.132
392.0	1.127
392.5	1.119
393.0	1.107
393.5	1.092
394.0	1.087
394.5	1.075
395.0	1.066
395.5	1.059
396.0	1.054
396.5	1.050
397.0	1.038
397.5	1.029
398.0	1.020
398.5	1.010
399.0	1.004
399.5	0.996
400.0	0.991
400.5	0.984
401.0	0.985
401.5	0.981
402.0	0.971
402.5	0.969
403.0	0.965
403.5	0.957
404.0	0.951
404.5	0.943
405.0	0.935
405.5	0.926
406.0	0.921
406.5	0.914
407.0	0.904
407.5	0.899
408.0	0.894
408.5	0.886
409.0	0.879
409.5	0.873
410.0	0.867
410.5	0.857
411.0	0.848
411.5	0.841
412.0	0.835
412.5	0.831
413.0	0.831
413.5	0.827
414.0	0.820
414.5	0.821
415.0	0.816
415.5	0.808
416.0	0.798
416.5	0.790
417.0	0.783
417.5	0.777
418.0	0.772
418.5	0.766
419.0	0.759
419.5	0.758
420.0	0.753
420.5	0.746
421.0	0.740
421.5	0.735
422.0	0.730
422.5	0.725
423.0	0.720
423.5	0.718
424.0	0.712
424.5	0.709
425.0	0.704
425.5	0.696
426.0	0.692
426.5	0.688
427.0	0.687
427.5	0.686
428.0	0.681
428.5	0.681
429.0	0.674
429.5	0.668
430.0	0.660
430.5	0.651
431.0	0.647
431.5	0.642
432.0	0.640
432.5	0.634
433.0	0.632
433.5	0.629
434.0	0.621
434.5	0.617
435.0	0.613
435.5	0.608
436.0	0.606
436.5	0.602
437.0	0.602
437.5	0.599
438.0	0.600
438.5	0.596
439.0	0.591
439.5	0.589
440.0	0.587
440.5	0.582
441.0	0.582
441.5	0.577
442.0	0.575
442.5	0.567
443.0	0.562
443.5	0.556
444.0	0.550
444.5	0.544
445.0	0.540
445.5	0.537
446.0	0.539
446.5	0.536
447.0	0.533
447.5	0.531
448.0	0.531
448.5	0.531
449.0	0.528
449.5	0.525
450.0	0.524
450.5	0.526
451.0	0.526
451.5	0.522
452.0	0.518
452.5	0.517
453.0	0.516
453.5	0.512
454.0	0.506
454.5	0.501
455.0	0.502
455.5	0.502
456.0	0.503
456.5	0.500
457.0	0.495
457.5	0.494
458.0	0.492
458.5	0.488
459.0	0.484
459.5	0.477
460.0	0.479
460.5	0.478
461.0	0.478
461.5	0.475
462.0	0.472
462.5	0.469
463.0	0.466
463.5	0.468
464.0	0.467
464.5	0.463
465.0	0.465
465.5	0.464
466.0	0.467
466.5	0.470
467.0	0.470
467.5	0.467
468.0	0.461
468.5	0.455
469.0	0.449
469.5	0.442
470.0	0.436
470.5	0.433
471.0	0.434
471.5	0.439
472.0	0.438
472.5	0.441
473.0	0.438
473.5	0.440
474.0	0.444
474.5	0.448
475.0	0.448
475.5	0.447
476.0	0.449
476.5	0.448
477.0	0.441
477.5	0.440
478.0	0.437
478.5	0.440
479.0	0.439
479.5	0.440
480.0	0.437
480.5	0.434
481.0	0.439
481.5	0.438
482.0	0.438
482.5	0.440
483.0	0.443
483.5	0.446
484.0	0.447
484.5	0.445
485.0	0.439
485.5	0.431
486.0	0.428
486.5	0.424
487.0	0.419
487.5	0.418
488.0	0.418
488.5	0.422
489.0	0.427
489.5	0.431
490.0	0.432
490.5	0.431
491.0	0.428
491.5	0.424
492.0	0.422
492.5	0.419
493.0	0.415
493.5	0.414
494.0	0.415
494.5	0.419
495.0	0.421
495.5	0.420
496.0	0.417
496.5	0.413
497.0	0.412
497.5	0.413
498.0	0.417
498.5	0.421
499.0	0.424
499.5	0.425
500.0	0.422
500.5	0.420
501.0	0.414
501.5	0.409
502.0	0.407
502.5	0.416
503.0	0.424
503.5	0.428
504.0	0.429
504.5	0.432
505.0	0.431
505.5	0.436
506.0	0.434
506.5	0.431
507.0	0.428
507.5	0.427
508.0	0.424
508.5	0.421
509.0	0.419
509.5	0.419
510.0	0.418
510.5	0.416
511.0	0.412
511.5	0.411
512.0	0.412
512.5	0.411
513.0	0.414
513.5	0.416
514.0	0.423
514.5	0.423
515.0	0.419
515.5	0.416
516.0	0.411
516.5	0.409
517.0	0.412
517.5	0.413
518.0	0.415
518.5	0.414
519.0	0.418
519.5	0.415
520.0	0.408
520.5	0.404
521.0	0.395
521.5	0.392
522.0	0.396
522.5	0.395
523.0	0.401
523.5	0.408
524.0	0.413
524.5	0.416
525.0	0.413
525.5	0.410
526.0	0.405
526.5	0.405
527.0	0.403
527.5	0.403
528.0	0.403
528.5	0.406
529.0	0.408
529.5	0.405
530.0	0.406
530.5	0.406
531.0	0.405
531.5	0.403
532.0	0.400
532.5	0.398
533.0	0.391
533.5	0.390
534.0	0.390
534.5	0.386
535.0	0.388
535.5	0.391
536.0	0.396
536.5	0.399
537.0	0.400
537.5	0.398
538.0	0.396
538.5	0.393
539.0	0.390
539.5	0.383
540.0	0.376
540.5	0.377
541.0	0.378
541.5	0.380
542.0	0.383
542.5	0.384
543.0	0.385
543.5	0.383
544.0	0.377
544.5	0.375
545.0	0.369
545.5	0.362
546.0	0.355
546.5	0.351
547.0	0.351
547.5	0.350
548.0	0.355
548.5	0.358
549.0	0.357
549.5	0.362
550.0	0.359
550.5	0.351
551.0	0.348
551.5	0.350
552.0	0.350
552.5	0.348
553.0	0.350
553.5	0.349
554.0	0.350
554.5	0.350
555.0	0.346
555.5	0.347
556.0	0.357
556.5	0.369
557.0	0.372
557.5	0.375
558.0	0.372
558.5	0.368
559.0	0.365
559.5	0.358
560.0	0.348
560.5	0.343
561.0	0.345
561.5	0.348
562.0	0.340
562.5	0.340
563.0	0.343
563.5	0.342
564.0	0.345
564.5	0.344
565.0	0.345
565.5	0.348
566.0	0.354
566.5	0.351
567.0	0.343
567.5	0.341
568.0	0.342
568.5	0.336
569.0	0.334
569.5	0.331
570.0	0.334
570.5	0.340
571.0	0.344
571.5	0.343
572.0	0.340
572.5	0.339
573.0	0.336
573.5	0.334
574.0	0.329
574.5	0.324
575.0	0.321
575.5	0.322
576.0	0.319
576.5	0.316
577.0	0.315
577.5	0.315
578.0	0.313
578.5	0.312
579.0	0.308
579.5	0.307
580.0	0.305
580.5	0.308
581.0	0.308
581.5	0.318
582.0	0.323
582.5	0.327
583.0	0.324
583.5	0.322
584.0	0.311
584.5	0.304
585.0	0.295
585.5	0.287
586.0	0.284
586.5	0.290
587.0	0.292
587.5	0.298
588.0	0.297
588.5	0.293
589.0	0.287
589.5	0.285
590.0	0.286
590.5	0.289
591.0	0.294
591.5	0.302
592.0	0.305
592.5	0.307
593.0	0.303
593.5	0.295
594.0	0.292
594.5	0.288
595.0	0.289
595.5	0.281
596.0	0.274
596.5	0.270
597.0	0.269
597.5	0.273
598.0	0.274
598.5	0.276
599.0	0.281
599.5	0.275
600.0	0.265
600.5	0.252
601.0	0.246
601.5	0.243
602.0	0.245
602.5	0.253
603.0	0.263
603.5	0.275
604.0	0.286
604.5	0.294
605.0	0.289
605.5	0.284
606.0	0.277
606.5	0.264
607.0	0.247
607.5	0.240
608.0	0.240
608.5	0.246
609.0	0.255
609.5	0.266
610.0	0.270
610.5	0.267
611.0	0.260
611.5	0.251
612.0	0.242
612.5	0.238
613.0	0.233
613.5	0.239
614.0	0.240
614.5	0.246
615.0	0.246
615.5	0.243
616.0	0.235
616.5	0.230
617.0	0.230
617.5	0.232
618.0	0.236
618.5	0.245
619.0	0.253
619.5	0.263
620.0	0.267
620.5	0.266
621.0	0.262
621.5	0.262
622.0	0.263
622.5	0.261
623.0	0.255
623.5	0.247
624.0	0.245
624.5	0.236
625.0	0.228
625.5	0.226
626.0	0.231
626.5	0.240
627.0	0.242
627.5	0.243
628.0	0.242
628.5	0.234
629.0	0.223
629.5	0.219
630.0	0.217
630.5	0.218
631.0	0.223
631.5	0.229
632.0	0.233
632.5	0.237
633.0	0.241
633.5	0.237
634.0	0.232
634.5	0.235
635.0	0.231
635.5	0.227
636.0	0.223
636.5	0.231
637.0	0.230
637.5	0.229
638.0	0.227
638.5	0.220
639.0	0.216
639.5	0.209
640.0	0.201
640.5	0.196
641.0	0.194
641.5	0.197
642.0	0.202
642.5	0.211
643.0	0.216
643.5	0.210
644.0	0.210
644.5	0.205
645.0	0.195
645.5	0.189
646.0	0.187
646.5	0.182
647.0	0.184
647.5	0.196
648.0	0.198
648.5	0.196
649.0	0.198
649.5	0.199
650.0	0.197
650.5	0.197
651.0	0.194
651.5	0.186
652.0	0.183
652.5	0.190
653.0	0.185
653.5	0.181
654.0	0.183
654.5	0.184
655.0	0.182
655.5	0.178
656.0	0.174
656.5	0.169
657.0	0.172
657.5	0.178
658.0	0.174
658.5	0.170
659.0	0.173
659.5	0.179
660.0	0.182
660.5	0.182
661.0	0.186
661.5	0.189
662.0	0.190
662.5	0.189
663.0	0.185
663.5	0.174
664.0	0.169
664.5	0.169
665.0	0.158
665.5	0.152
666.0	0.152
666.5	0.151
667.0	0.151
667.5	0.158
668.0	0.163
668.5	0.170
669.0	0.184
669.5	0.186
670.0	0.173
670.5	0.166
671.0	0.151
671.5	0.136
672.0	0.128
672.5	0.117
673.0	0.104
673.5	0.112
674.0	0.129
674.5	0.143
675.0	0.158
675.5	0.174
676.0	0.178
676.5	0.177
677.0	0.176
677.5	0.160
678.0	0.150
678.5	0.152
679.0	0.150
679.5	0.160
680.0	0.171
680.5	0.171
681.0	0.155
681.5	0.139
682.0	0.133
682.5	0.122
683.0	0.124
683.5	0.127
684.0	0.123
684.5	0.134
685.0	0.134
685.5	0.127
686.0	0.121
686.5	0.120
687.0	0.127
687.5	0.124
688.0	0.130
688.5	0.138
689.0	0.142
689.5	0.152
690.0	0.154
690.5	0.157
691.0	0.166
691.5	0.165
692.0	0.157
692.5	0.140
693.0	0.128
693.5	0.116
694.0	0.105
694.5	0.102
695.0	0.109
695.5	0.122
696.0	0.132
696.5	0.140
697.0	0.136
697.5	0.132
698.0	0.126
698.5	0.113
699.0	0.102
699.5	0.099
700.0	0.092
700.5	0.086
701.0	0.085
701.5	0.086
702.0	0.087
702.5	0.085
703.0	0.086
703.5	0.089
704.0	0.100
704.5	0.114
705.0	0.114
705.5	0.122
706.0	0.124
706.5	0.126
707.0	0.123
707.5	0.114
708.0	0.107
708.5	0.101
709.0	0.107
709.5	0.112
710.0	0.113
710.5	0.120
711.0	0.109
711.5	0.115
712.0	0.113
712.5	0.114
713.0	0.110
713.5	0.106
714.0	0.102
714.5	0.100
715.0	0.096
715.5	0.089
716.0	0.091
716.5	0.106
717.0	0.115
717.5	0.127
718.0	0.138
718.5	0.142
719.0	0.136
719.5	0.132
720.0	0.119
720.5	0.116
721.0	0.121
721.5	0.126
722.0	0.131
722.5	0.130
723.0	0.123
723.5	0.109
724.0	0.099
724.5	0.090
725.0	0.089
725.5	0.092
726.0	0.088
726.5	0.094
727.0	0.103
727.5	0.098
728.0	0.098
728.5	0.089
729.0	0.094
729.5	0.097
730.0	0.098
730.5	0.089
731.0	0.081
731.5	0.084
732.0	0.083
732.5	0.083
733.0	0.085
733.5	0.082
734.0	0.084
734.5	0.084
735.0	0.079
735.5	0.077
736.0	0.077
736.5	0.076
737.0	0.066
737.5	0.063
738.0	0.055
738.5	0.058
739.0	0.064
739.5	0.064
740.0	0.065
740.5	0.064
741.0	0.061
741.5	0.062
742.0	0.064
742.5	0.068
743.0	0.072
743.5	0.083
744.0	0.092
744.5	0.093
745.0	0.090
745.5	0.088
746.0	0.082
746.5	0.087
747.0	0.092
747.5	0.088
748.0	0.084
748.5	0.079
749.0	0.085
749.5	0.092
750.0	0.092
750.5	0.096
751.0	0.093
751.5	0.094
752.0	0.090
752.5	0.085
753.0	0.077
753.5	0.067
754.0	0.077
754.5	0.091
755.0	0.098
755.5	0.098
756.0	0.102
756.5	0.111
757.0	0.111
757.5	0.110
758.0	0.109
758.5	0.105
759.0	0.105
759.5	0.104
760.0	0.094
760.5	0.081
761.0	0.073
761.5	0.069
762.0	0.066
762.5	0.068
763.0	0.080
763.5	0.087
764.0	0.093
764.5	0.102
765.0	0.116
765.5	0.124
766.0	0.118
766.5	0.114
767.0	0.107
767.5	0.091
768.0	0.080
768.5	0.063
769.0	0.053
769.5	0.049
770.0	0.049
770.5	0.054
771.0	0.062
771.5	0.071
772.0	0.063
772.5	0.055
773.0	0.042
773.5	0.021
774.0	0.006
774.5	0.002
775.0	0.009
775.5	0.032
776.0	0.054
776.5	0.070
777.0	0.079
777.5	0.089
778.0	0.080
778.5	0.063
779.0	0.056
779.5	0.064
780.0	0.075
780.5	0.077
781.0	0.073
781.5	0.061
782.0	0.059
782.5	0.057
783.0	0.049
783.5	0.052
784.0	0.071
784.5	0.108
785.0	0.135
785.5	0.144
786.0	0.137
786.5	0.116
787.0	0.096
787.5	0.073
788.0	0.060
788.5	0.048
789.0	0.038
789.5	0.052
790.0	0.057
790.5	0.064
791.0	0.070
791.5	0.070
792.0	0.066
792.5	0.078
793.0	0.094
793.5	0.087
794.0	0.090
794.5	0.092
795.0	0.084
795.5	0.080
796.0	0.076
796.5	0.059
797.0	0.037
797.5	0.030
798.0	0.018
798.5	0.014
799.0	0.024
799.5	0.018
800.0	0.016
800.5	0.016
801.0	0.034
801.5	0.039
802.0	0.039
802.5	0.046
803.0	0.050
803.5	0.070
804.0	0.079
804.5	0.083
805.0	0.092
805.5	0.104
806.0	0.121
806.5	0.116
807.0	0.105
807.5	0.093
808.0	0.078
808.5	0.067
809.0	0.035
809.5	0.018
810.0	0.016
810.5	0.021
811.0	0.032
811.5	0.037
812.0	0.040
812.5	0.052
813.0	0.047
813.5	0.035
814.0	0.022
814.5	0.019
815.0	0.023
815.5	0.024
816.0	0.028
816.5	0.030
817.0	0.036
817.5	0.041
818.0	0.036
818.5	0.034
819.0	0.046
819.5	0.042
820.0	0.045
820.5	0.046
821.0	0.052
821.5	0.066
822.0	0.082
822.5	0.095
823.0	0.116
823.5	0.121
824.0	0.118
824.5	0.098
825.0	0.078
825.5	0.062
826.0	0.043
826.5	0.026
827.0	0.018
827.5	0.029
828.0	0.041
828.5	0.047
829.0	0.055
829.5	0.069
830.0	0.077
830.5	0.077
831.0	0.063
831.5	0.062
832.0	0.062
832.5	0.066
833.0	0.063
833.5	0.054
834.0	0.051
834.5	0.049
835.0	0.044
835.5	0.036
836.0	0.019
836.5	0.034
837.0	0.039
837.5	0.046
838.0	0.052
838.5	0.043
839.0	0.038
839.5	0.039
840.0	0.038
840.5	0.048
841.0	0.053
841.5	0.073
842.0	0.078
842.5	0.070
843.0	0.069
843.5	0.062
844.0	0.058
844.5	0.062
845.0	0.057
845.5	0.064
846.0	0.061
846.5	0.046
847.0	0.028
847.5	0.002
848.0	0.016
848.5	0.023
849.0	0.040
849.5	0.056
850.0	0.070


4
5/21/2024 5:43 PM
Wavelength (nm)	10mm Absorbance
//WLCalib: Shift 	0.10667	
//WLCalib: 261S 	-0.59000	
//WLCalib: 362S 	-0.96000	
//WLCalib: 484S 	-0.30000	
//WLCalib: 529S 	-0.11000	
//WLCalib: 823S 	-0.54000	
//QSpecEnd: 
190.0	1.885
190.5	1.827
191.0	1.695
191.5	1.849
192.0	1.956
192.5	2.130
193.0	2.081
193.5	2.205
194.0	2.044
194.5	2.161
195.0	2.458
195.5	2.382
196.0	2.236
196.5	2.230
197.0	2.267
197.5	2.106
198.0	2.157
198.5	2.291
199.0	2.266
199.5	2.543
200.0	2.913
200.5	3.173
201.0	3.765
201.5	4.627
202.0	5.508
202.5	6.371
203.0	7.309
203.5	7.983
204.0	8.636
204.5	9.375
205.0	9.902
205.5	10.314
206.0	10.725
206.5	11.096
207.0	11.345
207.5	11.568
208.0	11.720
208.5	11.897
209.0	12.093
209.5	12.270
210.0	12.497
210.5	12.679
211.0	12.922
211.5	13.126
212.0	13.265
212.5	13.365
213.0	13.459
213.5	13.497
214.0	13.516
214.5	13.531
215.0	13.593
215.5	13.666
216.0	13.774
216.5	13.930
217.0	14.127
217.5	14.408
218.0	14.708
218.5	15.026
219.0	15.377
219.5	15.778
220.0	16.189
220.5	16.557
221.0	16.937
221.5	17.323
222.0	17.636
222.5	17.896
223.0	18.136
223.5	18.403
224.0	18.682
224.5	19.019
225.0	19.397
225.5	19.910
226.0	20.715
226.5	21.703
227.0	22.901
227.5	24.114
228.0	25.081
228.5	25.922
229.0	26.440
229.5	26.610
230.0	26.477
230.5	26.185
231.0	25.829
231.5	25.320
232.0	25.168
232.5	24.617
233.0	24.058
233.5	23.869
234.0	23.603
234.5	23.189
235.0	22.889
235.5	22.548
236.0	22.167
236.5	21.746
237.0	21.272
237.5	20.579
238.0	19.944
238.5	19.428
239.0	18.751
239.5	17.969
240.0	17.460
240.5	16.850
241.0	16.371
241.5	15.921
242.0	15.434
242.5	15.124
243.0	14.850
243.5	14.582
244.0	14.278
244.5	13.972
245.0	13.614
245.5	13.232
246.0	12.903
246.5	12.601
247.0	12.358
247.5	12.208
248.0	12.108
248.5	12.047
249.0	11.943
249.5	11.834
250.0	11.733
250.5	11.631
251.0	11.542
251.5	11.466
252.0	11.390
252.5	11.328
253.0	11.317
253.5	11.275
254.0	11.252
254.5	11.220
255.0	11.186
255.5	11.174
256.0	11.194
256.5	11.233
257.0	11.275
257.5	11.331
258.0	11.397
258.5	11.455
259.0	11.524
259.5	11.542
260.0	11.576
260.5	11.595
261.0	11.634
261.5	11.666
262.0	11.722
262.5	11.776
263.0	11.813
263.5	11.873
264.0	11.910
264.5	11.945
265.0	11.989
265.5	12.025
266.0	12.094
266.5	12.153
267.0	12.243
267.5	12.289
268.0	12.322
268.5	12.373
269.0	12.430
269.5	12.480
270.0	12.523
270.5	12.569
271.0	12.604
271.5	12.620
272.0	12.600
272.5	12.575
273.0	12.552
273.5	12.511
274.0	12.494
274.5	12.474
275.0	12.450
275.5	12.428
276.0	12.427
276.5	12.416
277.0	12.415
277.5	12.406
278.0	12.346
278.5	12.280
279.0	12.224
279.5	12.154
280.0	12.034
280.5	11.922
281.0	11.821
281.5	11.711
282.0	11.592
282.5	11.447
283.0	11.329
283.5	11.218
284.0	11.097
284.5	10.996
285.0	10.888
285.5	10.803
286.0	10.716
286.5	10.618
287.0	10.514
287.5	10.417
288.0	10.306
288.5	10.199
289.0	10.080
289.5	9.979
290.0	9.888
290.5	9.787
291.0	9.695
291.5	9.593
292.0	9.512
292.5	9.431
293.0	9.344
293.5	9.261
294.0	9.179
294.5	9.103
295.0	9.035
295.5	8.963
296.0	8.900
296.5	8.844
297.0	8.789
297.5	8.730
298.0	8.656
298.5	8.582
299.0	8.520
299.5	8.462
300.0	8.415
300.5	8.368
301.0	8.322
301.5	8.280
302.0	8.229
302.5	8.180
303.0	8.129
303.5	8.084
304.0	8.039
304.5	7.999
305.0	7.961
305.5	7.916
306.0	7.861
306.5	7.796
307.0	7.751
307.5	7.701
308.0	7.666
308.5	7.633
309.0	7.596
309.5	7.574
310.0	7.553
310.5	7.527
311.0	7.492
311.5	7.451
312.0	7.429
312.5	7.390
313.0	7.360
313.5	7.326
314.0	7.292
314.5	7.256
315.0	7.222
315.5	7.194
316.0	7.158
316.5	7.127
317.0	7.096
317.5	7.062
318.0	7.029
318.5	6.998
319.0	6.964
319.5	6.927
320.0	6.895
320.5	6.872
321.0	6.843
321.5	6.822
322.0	6.790
322.5	6.756
323.0	6.722
323.5	6.678
324.0	6.629
324.5	6.584
325.0	6.536
325.5	6.499
326.0	6.466
326.5	6.436
327.0	6.407
327.5	6.376
328.0	6.341
328.5	6.282
329.0	6.231
329.5	6.184
330.0	6.129
330.5	6.076
331.0	6.022
331.5	5.967
332.0	5.918
332.5	5.858
333.0	5.798
333.5	5.735
334.0	5.676
334.5	5.617
335.0	5.564
335.5	5.506
336.0	5.436
336.5	5.366
337.0	5.295
337.5	5.218
338.0	5.149
338.5	5.079
339.0	5.007
339.5	4.942
340.0	4.879
340.5	4.802
341.0	4.721
341.5	4.648
342.0	4.573
342.5	4.489
343.0	4.422
343.5	4.348
344.0	4.275
344.5	4.201
345.0	4.126
345.5	4.047
346.0	3.972
346.5	3.901
347.0	3.829
347.5	3.758
348.0	3.693
348.5	3.615
349.0	3.542
349.5	3.471
350.0	3.402
350.5	3.335
351.0	3.267
351.5	3.197
352.0	3.132
352.5	3.063
353.0	2.991
353.5	2.919
354.0	2.853
354.5	2.785
355.0	2.728
355.5	2.672
356.0	2.613
356.5	2.555
357.0	2.496
357.5	2.443
358.0	2.387
358.5	2.338
359.0	2.286
359.5	2.230
360.0	2.185
360.5	2.133
361.0	2.087
361.5	2.042
362.0	2.000
362.5	1.965
363.0	1.928
363.5	1.899
364.0	1.857
364.5	1.817
365.0	1.777
365.5	1.736
366.0	1.703
366.5	1.673
367.0	1.640
367.5	1.612
368.0	1.583
368.5	1.554
369.0	1.522
369.5	1.491
370.0	1.458
370.5	1.431
371.0	1.411
371.5	1.385
372.0	1.365
372.5	1.345
373.0	1.322
373.5	1.300
374.0	1.281
374.5	1.264
375.0	1.243
375.5	1.228
376.0	1.211
376.5	1.197
377.0	1.191
377.5	1.179
378.0	1.166
378.5	1.149
379.0	1.135
379.5	1.123
380.0	1.108
380.5	1.098
381.0	1.084
381.5	1.071
382.0	1.058
382.5	1.047
383.0	1.039
383.5	1.029
384.0	1.018
384.5	1.009
385.0	0.998
385.5	0.987
386.0	0.977
386.5	0.960
387.0	0.953
387.5	0.943
388.0	0.938
388.5	0.931
389.0	0.923
389.5	0.919
390.0	0.911
390.5	0.904
391.0	0.901
391.5	0.898
392.0	0.900
392.5	0.895
393.0	0.886
393.5	0.875
394.0	0.866
394.5	0.858
395.0	0.849
395.5	0.844
396.0	0.836
396.5	0.833
397.0	0.829
397.5	0.826
398.0	0.817
398.5	0.808
399.0	0.804
399.5	0.799
400.0	0.796
400.5	0.793
401.0	0.789
401.5	0.783
402.0	0.777
402.5	0.776
403.0	0.767
403.5	0.756
404.0	0.750
404.5	0.744
405.0	0.738
405.5	0.734
406.0	0.729
406.5	0.723
407.0	0.720
407.5	0.716
408.0	0.709
408.5	0.697
409.0	0.692
409.5	0.687
410.0	0.684
410.5	0.681
411.0	0.674
411.5	0.673
412.0	0.672
412.5	0.670
413.0	0.669
413.5	0.665
414.0	0.662
414.5	0.663
415.0	0.659
415.5	0.653
416.0	0.647
416.5	0.642
417.0	0.636
417.5	0.631
418.0	0.627
418.5	0.624
419.0	0.621
419.5	0.619
420.0	0.613
420.5	0.607
421.0	0.603
421.5	0.600
422.0	0.598
422.5	0.593
423.0	0.593
423.5	0.594
424.0	0.592
424.5	0.590
425.0	0.584
425.5	0.577
426.0	0.572
426.5	0.569
427.0	0.571
427.5	0.566
428.0	0.563
428.5	0.561
429.0	0.559
429.5	0.551
430.0	0.545
430.5	0.538
431.0	0.535
431.5	0.531
432.0	0.533
432.5	0.528
433.0	0.528
433.5	0.524
434.0	0.516
434.5	0.509
435.0	0.507
435.5	0.503
436.0	0.501
436.5	0.496
437.0	0.496
437.5	0.494
438.0	0.496
438.5	0.490
439.0	0.487
439.5	0.484
440.0	0.484
440.5	0.484
441.0	0.484
441.5	0.481
442.0	0.480
442.5	0.477
443.0	0.471
443.5	0.467
444.0	0.466
444.5	0.461
445.0	0.459
445.5	0.459
446.0	0.461
446.5	0.460
447.0	0.458
447.5	0.453
448.0	0.448
448.5	0.447
449.0	0.443
449.5	0.437
450.0	0.436
450.5	0.438
451.0	0.440
451.5	0.438
452.0	0.439
452.5	0.435
453.0	0.435
453.5	0.433
454.0	0.430
454.5	0.425
455.0	0.428
455.5	0.431
456.0	0.434
456.5	0.431
457.0	0.430
457.5	0.423
458.0	0.419
458.5	0.410
459.0	0.404
459.5	0.399
460.0	0.400
460.5	0.399
461.0	0.404
461.5	0.404
462.0	0.407
462.5	0.408
463.0	0.407
463.5	0.406
464.0	0.407
464.5	0.406
465.0	0.403
465.5	0.400
466.0	0.403
466.5	0.405
467.0	0.406
467.5	0.403
468.0	0.397
468.5	0.394
469.0	0.394
469.5	0.390
470.0	0.387
470.5	0.385
471.0	0.387
471.5	0.388
472.0	0.383
472.5	0.376
473.0	0.369
473.5	0.370
474.0	0.374
474.5	0.380
475.0	0.385
475.5	0.387
476.0	0.392
476.5	0.389
477.0	0.381
477.5	0.375
478.0	0.370
478.5	0.370
479.0	0.369
479.5	0.368
480.0	0.364
480.5	0.361
481.0	0.362
481.5	0.360
482.0	0.360
482.5	0.362
483.0	0.365
483.5	0.368
484.0	0.369
484.5	0.368
485.0	0.363
485.5	0.363
486.0	0.363
486.5	0.363
487.0	0.365
487.5	0.366
488.0	0.363
488.5	0.361
489.0	0.361
489.5	0.364
490.0	0.365
490.5	0.367
491.0	0.366
491.5	0.366
492.0	0.363
492.5	0.358
493.0	0.353
493.5	0.350
494.0	0.351
494.5	0.359
495.0	0.362
495.5	0.364
496.0	0.363
496.5	0.356
497.0	0.350
497.5	0.347
498.0	0.347
498.5	0.347
499.0	0.348
499.5	0.352
500.0	0.349
500.5	0.351
501.0	0.347
501.5	0.343
502.0	0.340
502.5	0.342
503.0	0.345
503.5	0.352
504.0	0.352
504.5	0.355
505.0	0.353
505.5	0.355
506.0	0.352
506.5	0.351
507.0	0.345
507.5	0.341
508.0	0.341
508.5	0.344
509.0	0.345
509.5	0.347
510.0	0.347
510.5	0.342
511.0	0.339
511.5	0.337
512.0	0.337
512.5	0.339
513.0	0.343
513.5	0.347
514.0	0.352
514.5	0.354
515.0	0.351
515.5	0.343
516.0	0.338
516.5	0.337
517.0	0.340
517.5	0.343
518.0	0.344
518.5	0.343
519.0	0.349
519.5	0.350
520.0	0.346
520.5	0.341
521.0	0.339
521.5	0.338
522.0	0.337
522.5	0.332
523.0	0.327
523.5	0.328
524.0	0.332
524.5	0.330
525.0	0.330
525.5	0.330
526.0	0.330
526.5	0.335
527.0	0.336
527.5	0.335
528.0	0.332
528.5	0.333
529.0	0.329
529.5	0.323
530.0	0.322
530.5	0.323
531.0	0.325
531.5	0.337
532.0	0.342
532.5	0.344
533.0	0.340
533.5	0.340
534.0	0.336
534.5	0.332
535.0	0.332
535.5	0.336
536.0	0.337
536.5	0.338
537.0	0.338
537.5	0.334
538.0	0.330
538.5	0.330
539.0	0.328
539.5	0.326
540.0	0.322
540.5	0.326
541.0	0.324
541.5	0.320
542.0	0.319
542.5	0.315
543.0	0.315
543.5	0.318
544.0	0.316
544.5	0.316
545.0	0.318
545.5	0.319
546.0	0.318
546.5	0.316
547.0	0.314
547.5	0.309
548.0	0.310
548.5	0.310
549.0	0.307
549.5	0.308
550.0	0.311
550.5	0.309
551.0	0.312
551.5	0.317
552.0	0.319
552.5	0.313
553.0	0.308
553.5	0.302
554.0	0.297
554.5	0.297
555.0	0.291
555.5	0.292
556.0	0.301
556.5	0.310
557.0	0.314
557.5	0.317
558.0	0.314
558.5	0.310
559.0	0.311
559.5	0.311
560.0	0.302
560.5	0.296
561.0	0.300
561.5	0.300
562.0	0.295
562.5	0.295
563.0	0.292
563.5	0.290
564.0	0.296
564.5	0.298
565.0	0.299
565.5	0.299
566.0	0.307
566.5	0.310
567.0	0.308
567.5	0.313
568.0	0.314
568.5	0.310
569.0	0.308
569.5	0.304
570.0	0.306
570.5	0.308
571.0	0.314
571.5	0.316
572.0	0.319
572.5	0.319
573.0	0.311
573.5	0.303
574.0	0.293
574.5	0.290
575.0	0.285
575.5	0.285
576.0	0.280
576.5	0.279
577.0	0.280
577.5	0.278
578.0	0.275
578.5	0.273
579.0	0.270
579.5	0.272
580.0	0.274
580.5	0.278
581.0	0.282
581.5	0.289
582.0	0.297
582.5	0.299
583.0	0.298
583.5	0.297
584.0	0.286
584.5	0.284
585.0	0.283
585.5	0.282
586.0	0.284
586.5	0.288
587.0	0.292
587.5	0.293
588.0	0.291
588.5	0.284
589.0	0.272
589.5	0.266
590.0	0.264
590.5	0.269
591.0	0.272
591.5	0.278
592.0	0.285
592.5	0.287
593.0	0.287
593.5	0.282
594.0	0.281
594.5	0.280
595.0	0.279
595.5	0.280
596.0	0.278
596.5	0.277
597.0	0.276
597.5	0.276
598.0	0.275
598.5	0.269
599.0	0.265
599.5	0.261
600.0	0.254
600.5	0.245
601.0	0.243
601.5	0.238
602.0	0.237
602.5	0.241
603.0	0.245
603.5	0.250
604.0	0.259
604.5	0.267
605.0	0.270
605.5	0.268
606.0	0.263
606.5	0.260
607.0	0.251
607.5	0.245
608.0	0.243
608.5	0.246
609.0	0.251
609.5	0.256
610.0	0.261
610.5	0.255
611.0	0.249
611.5	0.249
612.0	0.242
612.5	0.238
613.0	0.231
613.5	0.232
614.0	0.233
614.5	0.238
615.0	0.239
615.5	0.234
616.0	0.228
616.5	0.227
617.0	0.229
617.5	0.232
618.0	0.233
618.5	0.238
619.0	0.244
619.5	0.245
620.0	0.245
620.5	0.247
621.0	0.245
621.5	0.251
622.0	0.256
622.5	0.260
623.0	0.256
623.5	0.254
624.0	0.244
624.5	0.231
625.0	0.225
625.5	0.226
626.0	0.237
626.5	0.245
627.0	0.256
627.5	0.265
628.0	0.266
628.5	0.266
629.0	0.254
629.5	0.249
630.0	0.240
630.5	0.235
631.0	0.240
631.5	0.239
632.0	0.248
632.5	0.252
633.0	0.252
633.5	0.255
634.0	0.255
634.5	0.259
635.0	0.250
635.5	0.236
636.0	0.232
636.5	0.226
637.0	0.227
637.5	0.229
638.0	0.225
638.5	0.223
639.0	0.225
639.5	0.227
640.0	0.221
640.5	0.219
641.0	0.216
641.5	0.213
642.0	0.216
642.5	0.224
643.0	0.225
643.5	0.220
644.0	0.217
644.5	0.222
645.0	0.216
645.5	0.219
646.0	0.214
646.5	0.207
647.0	0.202
647.5	0.201
648.0	0.202
648.5	0.202
649.0	0.202
649.5	0.209
650.0	0.203
650.5	0.210
651.0	0.213
651.5	0.212
652.0	0.206
652.5	0.205
653.0	0.203
653.5	0.200
654.0	0.200
654.5	0.195
655.0	0.190
655.5	0.192
656.0	0.200
656.5	0.203
657.0	0.208
657.5	0.217
658.0	0.216
658.5	0.214
659.0	0.215
659.5	0.215
660.0	0.216
660.5	0.215
661.0	0.217
661.5	0.215
662.0	0.210
662.5	0.209
663.0	0.206
663.5	0.195
664.0	0.185
664.5	0.183
665.0	0.175
665.5	0.170
666.0	0.175
666.5	0.179
667.0	0.181
667.5	0.196
668.0	0.207
668.5	0.213
669.0	0.216
669.5	0.215
670.0	0.207
670.5	0.201
671.0	0.193
671.5	0.183
672.0	0.178
672.5	0.169
673.0	0.160
673.5	0.160
674.0	0.162
674.5	0.169
675.0	0.170
675.5	0.173
676.0	0.178
676.5	0.186
677.0	0.197
677.5	0.194
678.0	0.194
678.5	0.197
679.0	0.199
679.5	0.203
680.0	0.201
680.5	0.197
681.0	0.190
681.5	0.182
682.0	0.181
682.5	0.172
683.0	0.170
683.5	0.173
684.0	0.170
684.5	0.175
685.0	0.175
685.5	0.173
686.0	0.168
686.5	0.175
687.0	0.185
687.5	0.182
688.0	0.188
688.5	0.194
689.0	0.191
689.5	0.191
690.0	0.190
690.5	0.192
691.0	0.197
691.5	0.201
692.0	0.203
692.5	0.199
693.0	0.202
693.5	0.198
694.0	0.187
694.5	0.179
695.0	0.181
695.5	0.183
696.0	0.180
696.5	0.170
697.0	0.166
697.5	0.166
698.0	0.178
698.5	0.175
699.0	0.178
699.5	0.180
700.0	0.180
700.5	0.177
701.0	0.164
701.5	0.152
702.0	0.142
702.5	0.134
703.0	0.133
703.5	0.134
704.0	0.140
704.5	0.145
705.0	0.147
705.5	0.159
706.0	0.161
706.5	0.171
707.0	0.176
707.5	0.173
708.0	0.165
708.5	0.158
709.0	0.153
709.5	0.156
710.0	0.163
710.5	0.170
711.0	0.167
711.5	0.177
712.0	0.182
712.5	0.183
713.0	0.178
713.5	0.172
714.0	0.167
714.5	0.168
715.0	0.170
715.5	0.163
716.0	0.159
716.5	0.164
717.0	0.169
717.5	0.183
718.0	0.193
718.5	0.193
719.0	0.189
719.5	0.188
720.0	0.180
720.5	0.173
721.0	0.167
721.5	0.162
722.0	0.167
722.5	0.182
723.0	0.190
723.5	0.184
724.0	0.184
724.5	0.181
725.0	0.177
725.5	0.174
726.0	0.160
726.5	0.155
727.0	0.162
727.5	0.162
728.0	0.162
728.5	0.151
729.0	0.153
729.5	0.152
730.0	0.159
730.5	0.156
731.0	0.148
731.5	0.154
732.0	0.159
732.5	0.158
733.0	0.161
733.5	0.160
734.0	0.160
734.5	0.165
735.0	0.166
735.5	0.161
736.0	0.155
736.5	0.149
737.0	0.146
737.5	0.148
738.0	0.151
738.5	0.153
739.0	0.158
739.5	0.159
740.0	0.150
740.5	0.142
741.0	0.132
741.5	0.126
742.0	0.126
742.5	0.127
743.0	0.128
743.5	0.136
744.0	0.141
744.5	0.138
745.0	0.138
745.5	0.149
746.0	0.153
746.5	0.167
747.0	0.173
747.5	0.167
748.0	0.159
748.5	0.162
749.0	0.164
749.5	0.168
750.0	0.173
750.5	0.182
751.0	0.178
751.5	0.176
752.0	0.167
752.5	0.150
753.0	0.147
753.5	0.146
754.0	0.148
754.5	0.158
755.0	0.163
755.5	0.157
756.0	0.154
756.5	0.160
757.0	0.159
757.5	0.160
758.0	0.166
758.5	0.164
759.0	0.161
759.5	0.164
760.0	0.156
760.5	0.142
761.0	0.139
761.5	0.135
762.0	0.130
762.5	0.135
763.0	0.145
763.5	0.160
764.0	0.178
764.5	0.196
765.0	0.209
765.5	0.211
766.0	0.206
766.5	0.189
767.0	0.169
767.5	0.152
768.0	0.134
768.5	0.114
769.0	0.112
769.5	0.110
770.0	0.115
770.5	0.120
771.0	0.137
771.5	0.156
772.0	0.160
772.5	0.158
773.0	0.136
773.5	0.105
774.0	0.086
774.5	0.074
775.0	0.080
775.5	0.103
776.0	0.139
776.5	0.161
777.0	0.171
777.5	0.173
778.0	0.160
778.5	0.144
779.0	0.138
779.5	0.149
780.0	0.159
780.5	0.172
781.0	0.174
781.5	0.155
782.0	0.140
782.5	0.133
783.0	0.120
783.5	0.114
784.0	0.126
784.5	0.150
785.0	0.170
785.5	0.175
786.0	0.179
786.5	0.168
787.0	0.162
787.5	0.160
788.0	0.155
788.5	0.147
789.0	0.152
789.5	0.152
790.0	0.140
790.5	0.124
791.0	0.116
791.5	0.103
792.0	0.097
792.5	0.113
793.0	0.136
793.5	0.140
794.0	0.158
794.5	0.170
795.0	0.169
795.5	0.166
796.0	0.162
796.5	0.140
797.0	0.129
797.5	0.121
798.0	0.109
798.5	0.091
799.0	0.095
799.5	0.096
800.0	0.106
800.5	0.110
801.0	0.124
801.5	0.127
802.0	0.138
802.5	0.132
803.0	0.132
803.5	0.139
804.0	0.150
804.5	0.152
805.0	0.173
805.5	0.185
806.0	0.198
806.5	0.206
807.0	0.206
807.5	0.207
808.0	0.203
808.5	0.190
809.0	0.163
809.5	0.137
810.0	0.126
810.5	0.110
811.0	0.105
811.5	0.108
812.0	0.104
812.5	0.114
813.0	0.117
813.5	0.112
814.0	0.110
814.5	0.112
815.0	0.117
815.5	0.112
816.0	0.118
816.5	0.114
817.0	0.109
817.5	0.114
818.0	0.125
818.5	0.129
819.0	0.135
819.5	0.130
820.0	0.122
820.5	0.117
821.0	0.130
821.5	0.138
822.0	0.152
822.5	0.176
823.0	0.206
823.5	0.222
824.0	0.226
824.5	0.211
825.0	0.188
825.5	0.172
826.0	0.158
826.5	0.132
827.0	0.109
827.5	0.107
828.0	0.105
828.5	0.105
829.0	0.111
829.5	0.115
830.0	0.113
830.5	0.116
831.0	0.121
831.5	0.131
832.0	0.138
832.5	0.145
833.0	0.147
833.5	0.147
834.0	0.142
834.5	0.128
835.0	0.109
835.5	0.096
836.0	0.089
836.5	0.097
837.0	0.110
837.5	0.127
838.0	0.144
838.5	0.164
839.0	0.175
839.5	0.179
840.0	0.174
840.5	0.173
841.0	0.157
841.5	0.145
842.0	0.139
842.5	0.128
843.0	0.114
843.5	0.108
844.0	0.108
844.5	0.122
845.0	0.131
845.5	0.142
846.0	0.127
846.5	0.120
847.0	0.110
847.5	0.098
848.0	0.103
848.5	0.122
849.0	0.158
849.5	0.180
850.0	0.189


5
5/21/2024 5:43 PM
Wavelength (nm)	10mm Absorbance
//WLCalib: Shift 	0.10667	
//WLCalib: 261S 	-0.59000	
//WLCalib: 362S 	-0.96000	
//WLCalib: 484S 	-0.30000	
//WLCalib: 529S 	-0.11000	
//WLCalib: 823S 	-0.54000	
//QSpecEnd: 
190.0	8.524
190.5	8.725
191.0	8.866
191.5	8.874
192.0	8.754
192.5	8.678
193.0	8.702
193.5	8.864
194.0	9.055
194.5	9.204
195.0	9.461
195.5	9.799
196.0	10.071
196.5	10.266
197.0	10.362
197.5	10.521
198.0	10.741
198.5	10.880
199.0	11.018
199.5	11.243
200.0	11.601
200.5	12.036
201.0	12.495
201.5	12.951
202.0	13.409
202.5	13.888
203.0	14.364
203.5	14.785
204.0	15.201
204.5	15.588
205.0	15.881
205.5	16.094
206.0	16.304
206.5	16.457
207.0	16.504
207.5	16.531
208.0	16.555
208.5	16.613
209.0	16.628
209.5	16.653
210.0	16.695
210.5	16.788
211.0	17.008
211.5	16.939
212.0	16.884
212.5	16.837
213.0	16.786
213.5	16.779
214.0	16.805
214.5	16.904
215.0	17.078
215.5	17.349
216.0	17.388
216.5	17.304
217.0	17.370
217.5	17.414
218.0	17.615
218.5	17.822
219.0	18.003
219.5	18.131
220.0	18.321
220.5	18.368
221.0	18.238
221.5	18.109
222.0	17.944
222.5	17.881
223.0	17.754
223.5	17.613
224.0	17.434
224.5	17.276
225.0	17.267
225.5	17.048
226.0	16.883
226.5	16.616
227.0	16.371
227.5	16.146
228.0	15.898
228.5	15.698
229.0	15.521
229.5	15.324
230.0	15.179
230.5	14.949
231.0	14.631
231.5	14.262
232.0	13.897
232.5	13.492
233.0	13.036
233.5	12.601
234.0	12.164
234.5	11.784
235.0	11.452
235.5	11.148
236.0	10.860
236.5	10.583
237.0	10.332
237.5	10.075
238.0	9.825
238.5	9.572
239.0	9.325
239.5	9.094
240.0	8.877
240.5	8.665
241.0	8.473
241.5	8.292
242.0	8.143
242.5	8.014
243.0	7.914
243.5	7.802
244.0	7.707
244.5	7.597
245.0	7.469
245.5	7.333
246.0	7.200
246.5	7.080
247.0	6.978
247.5	6.903
248.0	6.842
248.5	6.789
249.0	6.743
249.5	6.688
250.0	6.623
250.5	6.555
251.0	6.482
251.5	6.413
252.0	6.352
252.5	6.297
253.0	6.249
253.5	6.211
254.0	6.181
254.5	6.148
255.0	6.108
255.5	6.073
256.0	6.025
256.5	5.990
257.0	5.955
257.5	5.920
258.0	5.889
258.5	5.868
259.0	5.863
259.5	5.845
260.0	5.837
260.5	5.830
261.0	5.814
261.5	5.800
262.0	5.788
262.5	5.775
263.0	5.763
263.5	5.750
264.0	5.747
264.5	5.737
265.0	5.733
265.5	5.728
266.0	5.723
266.5	5.721
267.0	5.727
267.5	5.724
268.0	5.717
268.5	5.709
269.0	5.706
269.5	5.700
270.0	5.682
270.5	5.663
271.0	5.644
271.5	5.631
272.0	5.604
272.5	5.567
273.0	5.536
273.5	5.523
274.0	5.499
274.5	5.471
275.0	5.445
275.5	5.426
276.0	5.409
276.5	5.390
277.0	5.361
277.5	5.315
278.0	5.280
278.5	5.242
279.0	5.186
279.5	5.124
280.0	5.069
280.5	5.003
281.0	4.941
281.5	4.891
282.0	4.833
282.5	4.777
283.0	4.726
283.5	4.675
284.0	4.629
284.5	4.580
285.0	4.528
285.5	4.474
286.0	4.428
286.5	4.381
287.0	4.326
287.5	4.272
288.0	4.216
288.5	4.164
289.0	4.110
289.5	4.050
290.0	3.995
290.5	3.942
291.0	3.899
291.5	3.853
292.0	3.807
292.5	3.764
293.0	3.724
293.5	3.687
294.0	3.646
294.5	3.602
295.0	3.562
295.5	3.518
296.0	3.488
296.5	3.454
297.0	3.419
297.5	3.392
298.0	3.361
298.5	3.333
299.0	3.299
299.5	3.265
300.0	3.235
300.5	3.202
301.0	3.172
301.5	3.151
302.0	3.135
302.5	3.112
303.0	3.085
303.5	3.054
304.0	3.029
304.5	3.005
305.0	2.983
305.5	2.962
306.0	2.941
306.5	2.929
307.0	2.917
307.5	2.896
308.0	2.874
308.5	2.855
309.0	2.841
309.5	2.823
310.0	2.807
310.5	2.794
311.0	2.778
311.5	2.765
312.0	2.759
312.5	2.743
313.0	2.725
313.5	2.714
314.0	2.698
314.5	2.680
315.0	2.666
315.5	2.652
316.0	2.636
316.5	2.624
317.0	2.610
317.5	2.593
318.0	2.579
318.5	2.568
319.0	2.558
319.5	2.549
320.0	2.543
320.5	2.533
321.0	2.516
321.5	2.501
322.0	2.485
322.5	2.478
323.0	2.466
323.5	2.450
324.0	2.432
324.5	2.420
325.0	2.412
325.5	2.403
326.0	2.387
326.5	2.376
327.0	2.369
327.5	2.364
328.0	2.347
328.5	2.317
329.0	2.291
329.5	2.275
330.0	2.258
330.5	2.240
331.0	2.222
331.5	2.206
332.0	2.191
332.5	2.171
333.0	2.157
333.5	2.131
334.0	2.118
334.5	2.099
335.0	2.084
335.5	2.071
336.0	2.057
336.5	2.033
337.0	2.011
337.5	1.986
338.0	1.968
338.5	1.945
339.0	1.926
339.5	1.898
340.0	1.874
340.5	1.848
341.0	1.821
341.5	1.793
342.0	1.767
342.5	1.740
343.0	1.715
343.5	1.694
344.0	1.672
344.5	1.649
345.0	1.625
345.5	1.602
346.0	1.580
346.5	1.559
347.0	1.538
347.5	1.512
348.0	1.489
348.5	1.459
349.0	1.431
349.5	1.406
350.0	1.380
350.5	1.360
351.0	1.336
351.5	1.310
352.0	1.290
352.5	1.263
353.0	1.239
353.5	1.210
354.0	1.186
354.5	1.162
355.0	1.144
355.5	1.131
356.0	1.116
356.5	1.097
357.0	1.081
357.5	1.066
358.0	1.047
358.5	1.030
359.0	1.008
359.5	0.985
360.0	0.967
360.5	0.948
361.0	0.933
361.5	0.915
362.0	0.902
362.5	0.894
363.0	0.884
363.5	0.875
364.0	0.862
364.5	0.846
365.0	0.831
365.5	0.812
366.0	0.797
366.5	0.780
367.0	0.766
367.5	0.753
368.0	0.743
368.5	0.731
369.0	0.722
369.5	0.710
370.0	0.699
370.5	0.687
371.0	0.682
371.5	0.675
372.0	0.670
372.5	0.664
373.0	0.652
373.5	0.641
374.0	0.633
374.5	0.627
375.0	0.617
375.5	0.607
376.0	0.600
376.5	0.596
377.0	0.594
377.5	0.589
378.0	0.583
378.5	0.577
379.0	0.575
379.5	0.576
380.0	0.569
380.5	0.567
381.0	0.561
381.5	0.551
382.0	0.540
382.5	0.529
383.0	0.522
383.5	0.517
384.0	0.510
384.5	0.508
385.0	0.502
385.5	0.502
386.0	0.502
386.5	0.492
387.0	0.489
387.5	0.485
388.0	0.484
388.5	0.484
389.0	0.481
389.5	0.481
390.0	0.475
390.5	0.472
391.0	0.468
391.5	0.461
392.0	0.459
392.5	0.454
393.0	0.448
393.5	0.443
394.0	0.442
394.5	0.437
395.0	0.433
395.5	0.429
396.0	0.426
396.5	0.425
397.0	0.422
397.5	0.423
398.0	0.422
398.5	0.417
399.0	0.414
399.5	0.409
400.0	0.404
400.5	0.401
401.0	0.401
401.5	0.396
402.0	0.392
402.5	0.395
403.0	0.396
403.5	0.392
404.0	0.392
404.5	0.391
405.0	0.387
405.5	0.385
406.0	0.381
406.5	0.375
407.0	0.371
407.5	0.368
408.0	0.368
408.5	0.364
409.0	0.360
409.5	0.357
410.0	0.355
410.5	0.351
411.0	0.347
411.5	0.343
412.0	0.343
412.5	0.341
413.0	0.345
413.5	0.344
414.0	0.342
414.5	0.342
415.0	0.340
415.5	0.336
416.0	0.334
416.5	0.333
417.0	0.333
417.5	0.332
418.0	0.334
418.5	0.336
419.0	0.336
419.5	0.334
420.0	0.329
420.5	0.326
421.0	0.324
421.5	0.321
422.0	0.320
422.5	0.318
423.0	0.315
423.5	0.317
424.0	0.318
424.5	0.320
425.0	0.319
425.5	0.318
426.0	0.316
426.5	0.311
427.0	0.309
427.5	0.302
428.0	0.295
428.5	0.294
429.0	0.292
429.5	0.293
430.0	0.292
430.5	0.292
431.0	0.292
431.5	0.287
432.0	0.285
432.5	0.278
433.0	0.274
433.5	0.272
434.0	0.268
434.5	0.271
435.0	0.274
435.5	0.275
436.0	0.278
436.5	0.274
437.0	0.271
437.5	0.267
438.0	0.266
438.5	0.263
439.0	0.262
439.5	0.265
440.0	0.267
440.5	0.268
441.0	0.269
441.5	0.269
442.0	0.268
442.5	0.266
443.0	0.265
443.5	0.261
444.0	0.261
444.5	0.261
445.0	0.259
445.5	0.261
446.0	0.264
446.5	0.268
447.0	0.264
447.5	0.261
448.0	0.257
448.5	0.250
449.0	0.246
449.5	0.243
450.0	0.241
450.5	0.243
451.0	0.245
451.5	0.244
452.0	0.242
452.5	0.242
453.0	0.243
453.5	0.241
454.0	0.237
454.5	0.236
455.0	0.238
455.5	0.237
456.0	0.238
456.5	0.235
457.0	0.235
457.5	0.236
458.0	0.237
458.5	0.238
459.0	0.235
459.5	0.234
460.0	0.232
460.5	0.230
461.0	0.234
461.5	0.233
462.0	0.229
462.5	0.228
463.0	0.226
463.5	0.228
464.0	0.226
464.5	0.220
465.0	0.219
465.5	0.221
466.0	0.227
466.5	0.229
467.0	0.227
467.5	0.228
468.0	0.227
468.5	0.228
469.0	0.225
469.5	0.222
470.0	0.220
470.5	0.220
471.0	0.220
471.5	0.220
472.0	0.215
472.5	0.210
473.0	0.205
473.5	0.204
474.0	0.205
474.5	0.207
475.0	0.210
475.5	0.215
476.0	0.221
476.5	0.222
477.0	0.219
477.5	0.216
478.0	0.213
478.5	0.214
479.0	0.210
479.5	0.209
480.0	0.207
480.5	0.205
481.0	0.206
481.5	0.204
482.0	0.204
482.5	0.207
483.0	0.210
483.5	0.212
484.0	0.213
484.5	0.214
485.0	0.211
485.5	0.208
486.0	0.207
486.5	0.207
487.0	0.205
487.5	0.205
488.0	0.201
488.5	0.198
489.0	0.198
489.5	0.198
490.0	0.202
490.5	0.204
491.0	0.206
491.5	0.205
492.0	0.203
492.5	0.200
493.0	0.195
493.5	0.192
494.0	0.192
494.5	0.195
495.0	0.201
495.5	0.203
496.0	0.200
496.5	0.193
497.0	0.189
497.5	0.188
498.0	0.187
498.5	0.186
499.0	0.186
499.5	0.189
500.0	0.191
500.5	0.192
501.0	0.190
501.5	0.184
502.0	0.184
502.5	0.188
503.0	0.188
503.5	0.189
504.0	0.188
504.5	0.189
505.0	0.186
505.5	0.188
506.0	0.186
506.5	0.183
507.0	0.183
507.5	0.186
508.0	0.187
508.5	0.188
509.0	0.189
509.5	0.190
510.0	0.186
510.5	0.187
511.0	0.183
511.5	0.178
512.0	0.180
512.5	0.182
513.0	0.184
513.5	0.186
514.0	0.194
514.5	0.196
515.0	0.193
515.5	0.191
516.0	0.184
516.5	0.178
517.0	0.180
517.5	0.183
518.0	0.183
518.5	0.181
519.0	0.187
519.5	0.190
520.0	0.185
520.5	0.184
521.0	0.182
521.5	0.179
522.0	0.176
522.5	0.174
523.0	0.170
523.5	0.169
524.0	0.170
524.5	0.172
525.0	0.170
525.5	0.172
526.0	0.172
526.5	0.175
527.0	0.177
527.5	0.178
528.0	0.179
528.5	0.180
529.0	0.180
529.5	0.174
530.0	0.174
530.5	0.175
531.0	0.175
531.5	0.184
532.0	0.190
532.5	0.190
533.0	0.187
533.5	0.187
534.0	0.183
534.5	0.174
535.0	0.170
535.5	0.174
536.0	0.173
536.5	0.177
537.0	0.179
537.5	0.174
538.0	0.170
538.5	0.170
539.0	0.167
539.5	0.166
540.0	0.166
540.5	0.171
541.0	0.172
541.5	0.174
542.0	0.176
542.5	0.170
543.0	0.169
543.5	0.171
544.0	0.169
544.5	0.173
545.0	0.170
545.5	0.167
546.0	0.166
546.5	0.165
547.0	0.163
547.5	0.160
548.0	0.163
548.5	0.165
549.0	0.165
549.5	0.168
550.0	0.164
550.5	0.159
551.0	0.162
551.5	0.164
552.0	0.162
552.5	0.154
553.0	0.146
553.5	0.141
554.0	0.137
554.5	0.136
555.0	0.132
555.5	0.140
556.0	0.160
556.5	0.177
557.0	0.183
557.5	0.184
558.0	0.180
558.5	0.173
559.0	0.168
559.5	0.161
560.0	0.152
560.5	0.148
561.0	0.153
561.5	0.159
562.0	0.154
562.5	0.159
563.0	0.165
563.5	0.165
564.0	0.168
564.5	0.168
565.0	0.165
565.5	0.162
566.0	0.163
566.5	0.160
567.0	0.157
567.5	0.160
568.0	0.167
568.5	0.166
569.0	0.164
569.5	0.161
570.0	0.161
570.5	0.162
571.0	0.164
571.5	0.163
572.0	0.165
572.5	0.167
573.0	0.167
573.5	0.166
574.0	0.164
574.5	0.162
575.0	0.157
575.5	0.153
576.0	0.147
576.5	0.141
577.0	0.138
577.5	0.134
578.0	0.128
578.5	0.131
579.0	0.132
579.5	0.139
580.0	0.148
580.5	0.156
581.0	0.163
581.5	0.170
582.0	0.173
582.5	0.174
583.0	0.170
583.5	0.171
584.0	0.160
584.5	0.154
585.0	0.155
585.5	0.154
586.0	0.155
586.5	0.158
587.0	0.160
587.5	0.161
588.0	0.158
588.5	0.152
589.0	0.141
589.5	0.132
590.0	0.132
590.5	0.140
591.0	0.145
591.5	0.153
592.0	0.157
592.5	0.157
593.0	0.152
593.5	0.146
594.0	0.144
594.5	0.144
595.0	0.144
595.5	0.146
596.0	0.145
596.5	0.143
597.0	0.141
597.5	0.144
598.0	0.146
598.5	0.145
599.0	0.145
599.5	0.143
600.0	0.136
600.5	0.128
601.0	0.123
601.5	0.119
602.0	0.122
602.5	0.130
603.0	0.137
603.5	0.143
604.0	0.147
604.5	0.154
605.0	0.156
605.5	0.150
606.0	0.147
606.5	0.140
607.0	0.134
607.5	0.135
608.0	0.134
608.5	0.132
609.0	0.132
609.5	0.136
610.0	0.135
610.5	0.129
611.0	0.126
611.5	0.125
612.0	0.119
612.5	0.122
613.0	0.120
613.5	0.122
614.0	0.124
614.5	0.131
615.0	0.134
615.5	0.134
616.0	0.130
616.5	0.127
617.0	0.122
617.5	0.122
618.0	0.122
618.5	0.122
619.0	0.124
619.5	0.125
620.0	0.125
620.5	0.128
621.0	0.129
621.5	0.133
622.0	0.136
622.5	0.137
623.0	0.138
623.5	0.135
624.0	0.129
624.5	0.120
625.0	0.112
625.5	0.113
626.0	0.121
626.5	0.132
627.0	0.141
627.5	0.149
628.0	0.154
628.5	0.156
629.0	0.153
629.5	0.150
630.0	0.141
630.5	0.134
631.0	0.136
631.5	0.138
632.0	0.144
632.5	0.147
633.0	0.149
633.5	0.149
634.0	0.150
634.5	0.154
635.0	0.150
635.5	0.143
636.0	0.138
636.5	0.137
637.0	0.138
637.5	0.139
638.0	0.141
638.5	0.139
639.0	0.139
639.5	0.136
640.0	0.133
640.5	0.129
641.0	0.121
641.5	0.111
642.0	0.106
642.5	0.106
643.0	0.108
643.5	0.104
644.0	0.104
644.5	0.103
645.0	0.103
645.5	0.110
646.0	0.113
646.5	0.113
647.0	0.114
647.5	0.117
648.0	0.113
648.5	0.111
649.0	0.108
649.5	0.104
650.0	0.103
650.5	0.112
651.0	0.120
651.5	0.124
652.0	0.125
652.5	0.128
653.0	0.122
653.5	0.115
654.0	0.112
654.5	0.105
655.0	0.100
655.5	0.092
656.0	0.086
656.5	0.082
657.0	0.087
657.5	0.095
658.0	0.098
658.5	0.103
659.0	0.117
659.5	0.123
660.0	0.125
660.5	0.121
661.0	0.119
661.5	0.112
662.0	0.113
662.5	0.111
663.0	0.110
663.5	0.107
664.0	0.111
664.5	0.113
665.0	0.111
665.5	0.108
666.0	0.110
666.5	0.107
667.0	0.108
667.5	0.113
668.0	0.113
668.5	0.111
669.0	0.116
669.5	0.113
670.0	0.107
670.5	0.106
671.0	0.098
671.5	0.090
672.0	0.084
672.5	0.080
673.0	0.070
673.5	0.066
674.0	0.070
674.5	0.078
675.0	0.089
675.5	0.100
676.0	0.105
676.5	0.110
677.0	0.114
677.5	0.116
678.0	0.114
678.5	0.113
679.0	0.112
679.5	0.119
680.0	0.117
680.5	0.110
681.0	0.099
681.5	0.087
682.0	0.084
682.5	0.076
683.0	0.079
683.5	0.080
684.0	0.078
684.5	0.085
685.0	0.081
685.5	0.079
686.0	0.078
686.5	0.080
687.0	0.087
687.5	0.089
688.0	0.095
688.5	0.096
689.0	0.101
689.5	0.105
690.0	0.106
690.5	0.109
691.0	0.121
691.5	0.120
692.0	0.123
692.5	0.124
693.0	0.119
693.5	0.113
694.0	0.101
694.5	0.085
695.0	0.074
695.5	0.068
696.0	0.069
696.5	0.066
697.0	0.071
697.5	0.086
698.0	0.099
698.5	0.108
699.0	0.111
699.5	0.111
700.0	0.108
700.5	0.103
701.0	0.087
701.5	0.070
702.0	0.056
702.5	0.048
703.0	0.043
703.5	0.050
704.0	0.065
704.5	0.082
705.0	0.093
705.5	0.100
706.0	0.100
706.5	0.108
707.0	0.107
707.5	0.103
708.0	0.096
708.5	0.090
709.0	0.093
709.5	0.093
710.0	0.092
710.5	0.098
711.0	0.094
711.5	0.103
712.0	0.104
712.5	0.106
713.0	0.101
713.5	0.095
714.0	0.085
714.5	0.074
715.0	0.071
715.5	0.058
716.0	0.052
716.5	0.058
717.0	0.069
717.5	0.085
718.0	0.099
718.5	0.105
719.0	0.098
719.5	0.097
720.0	0.084
720.5	0.068
721.0	0.067
721.5	0.066
722.0	0.071
722.5	0.089
723.0	0.100
723.5	0.097
724.0	0.100
724.5	0.102
725.0	0.092
725.5	0.086
726.0	0.079
726.5	0.075
727.0	0.080
727.5	0.089
728.0	0.088
728.5	0.078
729.0	0.079
729.5	0.080
730.0	0.074
730.5	0.061
731.0	0.058
731.5	0.060
732.0	0.062
732.5	0.066
733.0	0.065
733.5	0.063
734.0	0.064
734.5	0.067
735.0	0.068
735.5	0.063
736.0	0.060
736.5	0.053
737.0	0.046
737.5	0.050
738.0	0.059
738.5	0.066
739.0	0.075
739.5	0.074
740.0	0.072
740.5	0.065
741.0	0.054
741.5	0.048
742.0	0.043
742.5	0.048
743.0	0.055
743.5	0.058
744.0	0.062
744.5	0.058
745.0	0.065
745.5	0.074
746.0	0.077
746.5	0.088
747.0	0.097
747.5	0.094
748.0	0.088
748.5	0.085
749.0	0.085
749.5	0.083
750.0	0.084
750.5	0.083
751.0	0.076
751.5	0.074
752.0	0.074
752.5	0.066
753.0	0.071
753.5	0.074
754.0	0.077
754.5	0.086
755.0	0.087
755.5	0.081
756.0	0.072
756.5	0.074
757.0	0.077
757.5	0.077
758.0	0.079
758.5	0.079
759.0	0.080
759.5	0.083
760.0	0.068
760.5	0.053
761.0	0.046
761.5	0.043
762.0	0.044
762.5	0.046
763.0	0.062
763.5	0.086
764.0	0.110
764.5	0.125
765.0	0.137
765.5	0.140
766.0	0.135
766.5	0.118
767.0	0.105
767.5	0.090
768.0	0.079
768.5	0.067
769.0	0.059
769.5	0.049
770.0	0.049
770.5	0.051
771.0	0.064
771.5	0.079
772.0	0.081
772.5	0.082
773.0	0.070
773.5	0.046
774.0	0.023
774.5	0.002
775.0	0.002
775.5	0.022
776.0	0.047
776.5	0.061
777.0	0.063
777.5	0.069
778.0	0.062
778.5	0.046
779.0	0.039
779.5	0.047
780.0	0.059
780.5	0.075
781.0	0.087
781.5	0.082
782.0	0.081
782.5	0.078
783.0	0.066
783.5	0.062
784.0	0.066
784.5	0.083
785.0	0.087
785.5	0.089
786.0	0.096
786.5	0.089
787.0	0.091
787.5	0.092
788.0	0.088
788.5	0.089
789.0	0.087
789.5	0.083
790.0	0.062
790.5	0.036
791.0	0.024
791.5	0.006
792.0	-0.005
792.5	0.003
793.0	0.024
793.5	0.042
794.0	0.064
794.5	0.077
795.0	0.078
795.5	0.075
796.0	0.082
796.5	0.060
797.0	0.040
797.5	0.030
798.0	0.027
798.5	0.022
799.0	0.026
799.5	0.030
800.0	0.039
800.5	0.042
801.0	0.050
801.5	0.040
802.0	0.040
802.5	0.036
803.0	0.036
803.5	0.043
804.0	0.058
804.5	0.072
805.0	0.081
805.5	0.085
806.0	0.087
806.5	0.083
807.0	0.085
807.5	0.075
808.0	0.075
808.5	0.074
809.0	0.066
809.5	0.057
810.0	0.047
810.5	0.039
811.0	0.030
811.5	0.032
812.0	0.033
812.5	0.037
813.0	0.044
813.5	0.035
814.0	0.038
814.5	0.038
815.0	0.040
815.5	0.034
816.0	0.040
816.5	0.043
817.0	0.044
817.5	0.049
818.0	0.049
818.5	0.054
819.0	0.070
819.5	0.062
820.0	0.054
820.5	0.046
821.0	0.063
821.5	0.068
822.0	0.079
822.5	0.101
823.0	0.127
823.5	0.141
824.0	0.141
824.5	0.117
825.0	0.090
825.5	0.070
826.0	0.063
826.5	0.046
827.0	0.034
827.5	0.043
828.0	0.046
828.5	0.043
829.0	0.040
829.5	0.036
830.0	0.021
830.5	0.014
831.0	0.006
831.5	0.011
832.0	0.023
832.5	0.041
833.0	0.050
833.5	0.053
834.0	0.053
834.5	0.051
835.0	0.038
835.5	0.033
836.0	0.014
836.5	0.032
837.0	0.050
837.5	0.061
838.0	0.066
838.5	0.072
839.0	0.080
839.5	0.076
840.0	0.058
840.5	0.053
841.0	0.037
841.5	0.040
842.0	0.029
842.5	0.019
843.0	0.023
843.5	0.010
844.0	0.017
844.5	0.017
845.0	0.016
845.5	0.023
846.0	0.014
846.5	0.006
847.0	0.003
847.5	-0.002
848.0	0.015
848.5	0.035
849.0	0.078
849.5	0.106
850.0	0.117


6
5/21/2024 5:44 PM
Wavelength (nm)	10mm Absorbance
//WLCalib: Shift 	0.10667	
//WLCalib: 261S 	-0.59000	
//WLCalib: 362S 	-0.96000	
//WLCalib: 484S 	-0.30000	
//WLCalib: 529S 	-0.11000	
//WLCalib: 823S 	-0.54000	
//QSpecEnd: 
190.0	0.075
190.5	0.217
191.0	0.260
191.5	0.314
192.0	0.385
192.5	0.570
193.0	0.408
193.5	0.215
194.0	0.211
194.5	0.039
195.0	-0.077
195.5	-0.296
196.0	-0.171
196.5	-0.294
197.0	-0.326
197.5	-0.381
198.0	-0.490
198.5	-0.383
199.0	-0.362
199.5	-0.515
200.0	-0.574
200.5	-0.358
201.0	0.013
201.5	0.419
202.0	0.897
202.5	1.680
203.0	2.331
203.5	2.959
204.0	3.586
204.5	4.122
205.0	4.881
205.5	5.692
206.0	6.314
206.5	6.820
207.0	7.306
207.5	7.705
208.0	7.822
208.5	7.918
209.0	8.023
209.5	8.167
210.0	8.367
210.5	8.590
211.0	8.882
211.5	9.093
212.0	9.263
212.5	9.384
213.0	9.524
213.5	9.549
214.0	9.612
214.5	9.648
215.0	9.758
215.5	9.904
216.0	10.062
216.5	10.195
217.0	10.406
217.5	10.598
218.0	10.931
218.5	11.246
219.0	11.540
219.5	11.864
220.0	12.230
220.5	12.596
221.0	13.000
221.5	13.403
222.0	13.708
222.5	13.948
223.0	14.183
223.5	14.437
224.0	14.685
224.5	14.989
225.0	15.343
225.5	15.865
226.0	16.655
226.5	17.697
227.0	18.869
227.5	20.063
228.0	21.157
228.5	22.046
229.0	22.641
229.5	22.900
230.0	22.821
230.5	22.492
231.0	22.064
231.5	21.657
232.0	21.305
232.5	21.013
233.0	20.816
233.5	20.786
234.0	20.879
234.5	21.043
235.0	21.334
235.5	21.409
236.0	21.509
236.5	21.594
237.0	21.870
237.5	21.920
238.0	21.753
238.5	21.411
239.0	21.020
239.5	20.497
240.0	19.952
240.5	19.228
241.0	18.780
241.5	18.299
242.0	18.133
242.5	17.775
243.0	17.467
243.5	17.174
244.0	16.981
244.5	16.608
245.0	16.258
245.5	15.923
246.0	15.616
246.5	15.285
247.0	15.108
247.5	14.937
248.0	14.847
248.5	14.763
249.0	14.736
249.5	14.578
250.0	14.474
250.5	14.391
251.0	14.339
251.5	14.297
252.0	14.201
252.5	14.093
253.0	14.020
253.5	13.940
254.0	13.909
254.5	13.778
255.0	13.757
255.5	13.755
256.0	13.804
256.5	13.836
257.0	13.791
257.5	13.749
258.0	13.723
258.5	13.732
259.0	13.762
259.5	13.741
260.0	13.761
260.5	13.804
261.0	13.864
261.5	13.874
262.0	13.880
262.5	13.873
263.0	13.859
263.5	13.852
264.0	13.836
264.5	13.806
265.0	13.786
265.5	13.790
266.0	13.766
266.5	13.758
267.0	13.728
267.5	13.776
268.0	13.798
268.5	13.789
269.0	13.819
269.5	13.856
270.0	13.859
270.5	13.840
271.0	13.804
271.5	13.702
272.0	13.630
272.5	13.628
273.0	13.613
273.5	13.572
274.0	13.522
274.5	13.404
275.0	13.295
275.5	13.188
276.0	13.071
276.5	12.950
277.0	12.951
277.5	12.935
278.0	12.969
278.5	12.951
279.0	12.871
279.5	12.759
280.0	12.658
280.5	12.510
281.0	12.363
281.5	12.223
282.0	12.118
282.5	11.986
283.0	11.881
283.5	11.753
284.0	11.635
284.5	11.537
285.0	11.420
285.5	11.330
286.0	11.259
286.5	11.180
287.0	11.113
287.5	11.023
288.0	10.935
288.5	10.855
289.0	10.784
289.5	10.725
290.0	10.651
290.5	10.588
291.0	10.534
291.5	10.470
292.0	10.415
292.5	10.366
293.0	10.319
293.5	10.281
294.0	10.245
294.5	10.191
295.0	10.133
295.5	10.068
296.0	10.013
296.5	9.951
297.0	9.882
297.5	9.822
298.0	9.776
298.5	9.729
299.0	9.685
299.5	9.635
300.0	9.585
300.5	9.535
301.0	9.489
301.5	9.453
302.0	9.418
302.5	9.381
303.0	9.344
303.5	9.286
304.0	9.237
304.5	9.195
305.0	9.147
305.5	9.095
306.0	9.058
306.5	9.032
307.0	9.003
307.5	8.964
308.0	8.916
308.5	8.864
309.0	8.828
309.5	8.804
310.0	8.782
310.5	8.761
311.0	8.726
311.5	8.702
312.0	8.681
312.5	8.656
313.0	8.626
313.5	8.591
314.0	8.563
314.5	8.538
315.0	8.500
315.5	8.462
316.0	8.408
316.5	8.373
317.0	8.325
317.5	8.287
318.0	8.262
318.5	8.245
319.0	8.247
319.5	8.226
320.0	8.199
320.5	8.170
321.0	8.125
321.5	8.066
322.0	8.004
322.5	7.976
323.0	7.945
323.5	7.921
324.0	7.895
324.5	7.861
325.0	7.840
325.5	7.806
326.0	7.769
326.5	7.727
327.0	7.685
327.5	7.663
328.0	7.610
328.5	7.556
329.0	7.502
329.5	7.461
330.0	7.418
330.5	7.369
331.0	7.331
331.5	7.304
332.0	7.272
332.5	7.244
333.0	7.206
333.5	7.168
334.0	7.136
334.5	7.093
335.0	7.038
335.5	6.976
336.0	6.920
336.5	6.872
337.0	6.828
337.5	6.785
338.0	6.751
338.5	6.720
339.0	6.686
339.5	6.648
340.0	6.605
340.5	6.542
341.0	6.483
341.5	6.420
342.0	6.374
342.5	6.315
343.0	6.262
343.5	6.222
344.0	6.179
344.5	6.139
345.0	6.094
345.5	6.052
346.0	6.018
346.5	5.969
347.0	5.929
347.5	5.878
348.0	5.830
348.5	5.780
349.0	5.735
349.5	5.683
350.0	5.647
350.5	5.608
351.0	5.568
351.5	5.517
352.0	5.484
352.5	5.452
353.0	5.418
353.5	5.378
354.0	5.341
354.5	5.299
355.0	5.272
355.5	5.231
356.0	5.198
356.5	5.164
357.0	5.141
357.5	5.109
358.0	5.066
358.5	5.024
359.0	4.982
359.5	4.942
360.0	4.918
360.5	4.896
361.0	4.884
361.5	4.875
362.0	4.864
362.5	4.839
363.0	4.800
363.5	4.770
364.0	4.727
364.5	4.690
365.0	4.663
365.5	4.635
366.0	4.617
366.5	4.605
367.0	4.587
367.5	4.570
368.0	4.552
368.5	4.532
369.0	4.499
369.5	4.476
370.0	4.455
370.5	4.439
371.0	4.430
371.5	4.422
372.0	4.407
372.5	4.396
373.0	4.380
373.5	4.363
374.0	4.347
374.5	4.333
375.0	4.319
375.5	4.311
376.0	4.301
376.5	4.297
377.0	4.289
377.5	4.277
378.0	4.270
378.5	4.257
379.0	4.243
379.5	4.228
380.0	4.207
380.5	4.190
381.0	4.171
381.5	4.162
382.0	4.152
382.5	4.148
383.0	4.150
383.5	4.148
384.0	4.148
384.5	4.143
385.0	4.134
385.5	4.124
386.0	4.113
386.5	4.104
387.0	4.097
387.5	4.094
388.0	4.090
388.5	4.082
389.0	4.073
389.5	4.061
390.0	4.051
390.5	4.047
391.0	4.043
391.5	4.043
392.0	4.044
392.5	4.039
393.0	4.026
393.5	4.016
394.0	4.008
394.5	3.993
395.0	3.985
395.5	3.977
396.0	3.967
396.5	3.964
397.0	3.957
397.5	3.947
398.0	3.943
398.5	3.942
399.0	3.938
399.5	3.925
400.0	3.925
400.5	3.923
401.0	3.921
401.5	3.912
402.0	3.899
402.5	3.890
403.0	3.891
403.5	3.882
404.0	3.881
404.5	3.879
405.0	3.883
405.5	3.883
406.0	3.877
406.5	3.863
407.0	3.852
407.5	3.840
408.0	3.832
408.5	3.826
409.0	3.826
409.5	3.831
410.0	3.830
410.5	3.820
411.0	3.813
411.5	3.806
412.0	3.798
412.5	3.788
413.0	3.786
413.5	3.789
414.0	3.791
414.5	3.797
415.0	3.796
415.5	3.785
416.0	3.781
416.5	3.773
417.0	3.765
417.5	3.758
418.0	3.756
418.5	3.759
419.0	3.759
419.5	3.759
420.0	3.759
420.5	3.750
421.0	3.744
421.5	3.738
422.0	3.731
422.5	3.723
423.0	3.719
423.5	3.717
424.0	3.711
424.5	3.706
425.0	3.703
425.5	3.695
426.0	3.690
426.5	3.686
427.0	3.680
427.5	3.675
428.0	3.667
428.5	3.659
429.0	3.647
429.5	3.636
430.0	3.630
430.5	3.627
431.0	3.627
431.5	3.627
432.0	3.629
432.5	3.628
433.0	3.631
433.5	3.629
434.0	3.620
434.5	3.615
435.0	3.612
435.5	3.604
436.0	3.601
436.5	3.596
437.0	3.592
437.5	3.587
438.0	3.586
438.5	3.583
439.0	3.582
439.5	3.584
440.0	3.585
440.5	3.580
441.0	3.584
441.5	3.581
442.0	3.573
442.5	3.565
443.0	3.553
443.5	3.545
444.0	3.542
444.5	3.538
445.0	3.539
445.5	3.541
446.0	3.544
446.5	3.543
447.0	3.537
447.5	3.535
448.0	3.527
448.5	3.521
449.0	3.516
449.5	3.510
450.0	3.510
450.5	3.511
451.0	3.509
451.5	3.504
452.0	3.502
452.5	3.504
453.0	3.503
453.5	3.502
454.0	3.498
454.5	3.494
455.0	3.494
455.5	3.491
456.0	3.488
456.5	3.476
457.0	3.472
457.5	3.474
458.0	3.473
458.5	3.471
459.0	3.470
459.5	3.472
460.0	3.473
460.5	3.472
461.0	3.472
461.5	3.463
462.0	3.453
462.5	3.446
463.0	3.435
463.5	3.426
464.0	3.424
464.5	3.422
465.0	3.422
465.5	3.426
466.0	3.435
466.5	3.439
467.0	3.438
467.5	3.438
468.0	3.431
468.5	3.424
469.0	3.417
469.5	3.405
470.0	3.393
470.5	3.388
471.0	3.386
471.5	3.388
472.0	3.387
472.5	3.387
473.0	3.387
473.5	3.389
474.0	3.389
474.5	3.387
475.0	3.384
475.5	3.385
476.0	3.386
476.5	3.389
477.0	3.388
477.5	3.387
478.0	3.389
478.5	3.391
479.0	3.394
479.5	3.396
480.0	3.392
480.5	3.388
481.0	3.390
481.5	3.393
482.0	3.394
482.5	3.398
483.0	3.406
483.5	3.418
484.0	3.426
484.5	3.425
485.0	3.417
485.5	3.404
486.0	3.392
486.5	3.377
487.0	3.362
487.5	3.356
488.0	3.353
488.5	3.357
489.0	3.359
489.5	3.362
490.0	3.367
490.5	3.370
491.0	3.370
491.5	3.369
492.0	3.369
492.5	3.369
493.0	3.367
493.5	3.362
494.0	3.353
494.5	3.343
495.0	3.335
495.5	3.328
496.0	3.324
496.5	3.325
497.0	3.334
497.5	3.342
498.0	3.351
498.5	3.354
499.0	3.353
499.5	3.347
500.0	3.339
500.5	3.335
501.0	3.331
501.5	3.331
502.0	3.333
502.5	3.338
503.0	3.340
503.5	3.344
504.0	3.345
504.5	3.344
505.0	3.341
505.5	3.345
506.0	3.346
506.5	3.352
507.0	3.360
507.5	3.365
508.0	3.367
508.5	3.371
509.0	3.367
509.5	3.365
510.0	3.358
510.5	3.349
511.0	3.337
511.5	3.334
512.0	3.332
512.5	3.335
513.0	3.339
513.5	3.342
514.0	3.351
514.5	3.355
515.0	3.351
515.5	3.339
516.0	3.328
516.5	3.323
517.0	3.325
517.5	3.333
518.0	3.338
518.5	3.341
519.0	3.352
519.5	3.354
520.0	3.345
520.5	3.332
521.0	3.326
521.5	3.318
522.0	3.317
522.5	3.314
523.0	3.311
523.5	3.314
524.0	3.318
524.5	3.325
525.0	3.325
525.5	3.330
526.0	3.337
526.5	3.345
527.0	3.357
527.5	3.362
528.0	3.364
528.5	3.368
529.0	3.370
529.5	3.364
530.0	3.354
530.5	3.342
531.0	3.327
531.5	3.316
532.0	3.307
532.5	3.297
533.0	3.291
533.5	3.293
534.0	3.295
534.5	3.294
535.0	3.294
535.5	3.298
536.0	3.296
536.5	3.295
537.0	3.295
537.5	3.294
538.0	3.291
538.5	3.290
539.0	3.285
539.5	3.286
540.0	3.290
540.5	3.299
541.0	3.306
541.5	3.313
542.0	3.316
542.5	3.311
543.0	3.303
543.5	3.290
544.0	3.271
544.5	3.260
545.0	3.252
545.5	3.242
546.0	3.241
546.5	3.243
547.0	3.249
547.5	3.249
548.0	3.258
548.5	3.255
549.0	3.245
549.5	3.243
550.0	3.238
550.5	3.225
551.0	3.223
551.5	3.226
552.0	3.229
552.5	3.226
553.0	3.228
553.5	3.220
554.0	3.213
554.5	3.210
555.0	3.205
555.5	3.205
556.0	3.213
556.5	3.224
557.0	3.222
557.5	3.219
558.0	3.213
558.5	3.203
559.0	3.197
559.5	3.189
560.0	3.186
560.5	3.184
561.0	3.190
561.5	3.194
562.0	3.182
562.5	3.178
563.0	3.175
563.5	3.174
564.0	3.183
564.5	3.192
565.0	3.201
565.5	3.207
566.0	3.219
566.5	3.220
567.0	3.212
567.5	3.205
568.0	3.199
568.5	3.195
569.0	3.191
569.5	3.184
570.0	3.179
570.5	3.179
571.0	3.184
571.5	3.182
572.0	3.186
572.5	3.190
573.0	3.192
573.5	3.190
574.0	3.189
574.5	3.182
575.0	3.175
575.5	3.172
576.0	3.163
576.5	3.153
577.0	3.145
577.5	3.135
578.0	3.124
578.5	3.113
579.0	3.111
579.5	3.108
580.0	3.114
580.5	3.123
581.0	3.126
581.5	3.133
582.0	3.137
582.5	3.135
583.0	3.127
583.5	3.115
584.0	3.099
584.5	3.084
585.0	3.079
585.5	3.076
586.0	3.076
586.5	3.084
587.0	3.098
587.5	3.109
588.0	3.116
588.5	3.115
589.0	3.116
589.5	3.107
590.0	3.100
590.5	3.097
591.0	3.095
591.5	3.094
592.0	3.097
592.5	3.095
593.0	3.094
593.5	3.090
594.0	3.091
594.5	3.085
595.0	3.078
595.5	3.077
596.0	3.072
596.5	3.072
597.0	3.075
597.5	3.078
598.0	3.076
598.5	3.073
599.0	3.070
599.5	3.063
600.0	3.051
600.5	3.036
601.0	3.026
601.5	3.023
602.0	3.028
602.5	3.042
603.0	3.053
603.5	3.067
604.0	3.082
604.5	3.091
605.0	3.091
605.5	3.078
606.0	3.065
606.5	3.048
607.0	3.034
607.5	3.027
608.0	3.021
608.5	3.017
609.0	3.022
609.5	3.027
610.0	3.029
610.5	3.017
611.0	3.005
611.5	2.999
612.0	2.991
612.5	2.985
613.0	2.978
613.5	2.984
614.0	2.998
614.5	3.015
615.0	3.027
615.5	3.029
616.0	3.020
616.5	3.021
617.0	3.014
617.5	3.005
618.0	2.997
618.5	2.991
619.0	2.989
619.5	2.985
620.0	2.978
620.5	2.974
621.0	2.970
621.5	2.975
622.0	2.974
622.5	2.975
623.0	2.976
623.5	2.974
624.0	2.971
624.5	2.957
625.0	2.957
625.5	2.968
626.0	2.985
626.5	3.002
627.0	3.008
627.5	3.014
628.0	3.016
628.5	3.010
629.0	2.990
629.5	2.976
630.0	2.962
630.5	2.952
631.0	2.948
631.5	2.950
632.0	2.949
632.5	2.954
633.0	2.960
633.5	2.964
634.0	2.965
634.5	2.972
635.0	2.971
635.5	2.969
636.0	2.963
636.5	2.958
637.0	2.953
637.5	2.957
638.0	2.963
638.5	2.961
639.0	2.959
639.5	2.962
640.0	2.961
640.5	2.956
641.0	2.952
641.5	2.941
642.0	2.942
642.5	2.953
643.0	2.961
643.5	2.958
644.0	2.955
644.5	2.951
645.0	2.941
645.5	2.934
646.0	2.930
646.5	2.923
647.0	2.919
647.5	2.925
648.0	2.930
648.5	2.932
649.0	2.930
649.5	2.923
650.0	2.925
650.5	2.930
651.0	2.935
651.5	2.934
652.0	2.931
652.5	2.935
653.0	2.931
653.5	2.924
654.0	2.919
654.5	2.907
655.0	2.902
655.5	2.898
656.0	2.899
656.5	2.906
657.0	2.918
657.5	2.935
658.0	2.943
658.5	2.952
659.0	2.954
659.5	2.954
660.0	2.950
660.5	2.943
661.0	2.937
661.5	2.937
662.0	2.933
662.5	2.927
663.0	2.921
663.5	2.910
664.0	2.905
664.5	2.906
665.0	2.904
665.5	2.908
666.0	2.924
666.5	2.927
667.0	2.930
667.5	2.931
668.0	2.930
668.5	2.929
669.0	2.935
669.5	2.923
670.0	2.901
670.5	2.891
671.0	2.883
671.5	2.869
672.0	2.864
672.5	2.857
673.0	2.853
673.5	2.866
674.0	2.875
674.5	2.885
675.0	2.892
675.5	2.900
676.0	2.913
676.5	2.921
677.0	2.925
677.5	2.916
678.0	2.908
678.5	2.902
679.0	2.899
679.5	2.902
680.0	2.895
680.5	2.892
681.0	2.887
681.5	2.885
682.0	2.888
682.5	2.888
683.0	2.897
683.5	2.902
684.0	2.909
684.5	2.909
685.0	2.902
685.5	2.896
686.0	2.885
686.5	2.883
687.0	2.879
687.5	2.875
688.0	2.878
688.5	2.878
689.0	2.883
689.5	2.877
690.0	2.883
690.5	2.884
691.0	2.888
691.5	2.895
692.0	2.891
692.5	2.885
693.0	2.885
693.5	2.881
694.0	2.861
694.5	2.850
695.0	2.855
695.5	2.861
696.0	2.870
696.5	2.887
697.0	2.901
697.5	2.918
698.0	2.939
698.5	2.944
699.0	2.936
699.5	2.936
700.0	2.928
700.5	2.918
701.0	2.895
701.5	2.876
702.0	2.854
702.5	2.838
703.0	2.833
703.5	2.828
704.0	2.831
704.5	2.840
705.0	2.851
705.5	2.859
706.0	2.858
706.5	2.854
707.0	2.841
707.5	2.832
708.0	2.826
708.5	2.819
709.0	2.826
709.5	2.833
710.0	2.842
710.5	2.851
711.0	2.861
711.5	2.873
712.0	2.872
712.5	2.880
713.0	2.886
713.5	2.890
714.0	2.895
714.5	2.887
715.0	2.887
715.5	2.880
716.0	2.878
716.5	2.883
717.0	2.875
717.5	2.881
718.0	2.881
718.5	2.876
719.0	2.875
719.5	2.866
720.0	2.859
720.5	2.853
721.0	2.846
721.5	2.853
722.0	2.860
722.5	2.876
723.0	2.874
723.5	2.878
724.0	2.886
724.5	2.884
725.0	2.886
725.5	2.877
726.0	2.860
726.5	2.858
727.0	2.858
727.5	2.855
728.0	2.839
728.5	2.827
729.0	2.820
729.5	2.812
730.0	2.811
730.5	2.796
731.0	2.792
731.5	2.795
732.0	2.803
732.5	2.811
733.0	2.812
733.5	2.806
734.0	2.812
734.5	2.819
735.0	2.822
735.5	2.817
736.0	2.815
736.5	2.820
737.0	2.817
737.5	2.819
738.0	2.822
738.5	2.825
739.0	2.833
739.5	2.830
740.0	2.827
740.5	2.816
741.0	2.812
741.5	2.813
742.0	2.806
742.5	2.802
743.0	2.815
743.5	2.828
744.0	2.835
744.5	2.839
745.0	2.844
745.5	2.854
746.0	2.864
746.5	2.875
747.0	2.881
747.5	2.874
748.0	2.877
748.5	2.877
749.0	2.873
749.5	2.869
750.0	2.859
750.5	2.852
751.0	2.839
751.5	2.839
752.0	2.839
752.5	2.833
753.0	2.844
753.5	2.852
754.0	2.853
754.5	2.855
755.0	2.853
755.5	2.839
756.0	2.828
756.5	2.832
757.0	2.831
757.5	2.831
758.0	2.838
758.5	2.831
759.0	2.822
759.5	2.821
760.0	2.822
760.5	2.821
761.0	2.825
761.5	2.839
762.0	2.855
762.5	2.871
763.0	2.886
763.5	2.890
764.0	2.887
764.5	2.888
765.0	2.888
765.5	2.875
766.0	2.858
766.5	2.835
767.0	2.820
767.5	2.811
768.0	2.800
768.5	2.792
769.0	2.782
769.5	2.783
770.0	2.780
770.5	2.782
771.0	2.798
771.5	2.800
772.0	2.805
772.5	2.820
773.0	2.823
773.5	2.811
774.0	2.796
774.5	2.779
775.0	2.764
775.5	2.773
776.0	2.790
776.5	2.796
777.0	2.801
777.5	2.805
778.0	2.796
778.5	2.773
779.0	2.759
779.5	2.759
780.0	2.763
780.5	2.780
781.0	2.801
781.5	2.811
782.0	2.807
782.5	2.807
783.0	2.799
783.5	2.803
784.0	2.828
784.5	2.855
785.0	2.875
785.5	2.891
786.0	2.900
786.5	2.894
787.0	2.874
787.5	2.852
788.0	2.837
788.5	2.826
789.0	2.814
789.5	2.801
790.0	2.799
790.5	2.791
791.0	2.784
791.5	2.773
792.0	2.754
792.5	2.756
793.0	2.770
793.5	2.770
794.0	2.785
794.5	2.808
795.0	2.828
795.5	2.839
796.0	2.845
796.5	2.834
797.0	2.822
797.5	2.815
798.0	2.803
798.5	2.798
799.0	2.803
799.5	2.804
800.0	2.799
800.5	2.793
801.0	2.786
801.5	2.782
802.0	2.783
802.5	2.786
803.0	2.792
803.5	2.820
804.0	2.831
804.5	2.841
805.0	2.841
805.5	2.838
806.0	2.838
806.5	2.835
807.0	2.835
807.5	2.835
808.0	2.834
808.5	2.849
809.0	2.839
809.5	2.842
810.0	2.844
810.5	2.835
811.0	2.836
811.5	2.823
812.0	2.807
812.5	2.797
813.0	2.791
813.5	2.799
814.0	2.803
814.5	2.802
815.0	2.807
815.5	2.797
816.0	2.796
816.5	2.782
817.0	2.781
817.5	2.782
818.0	2.783
818.5	2.793
819.0	2.801
819.5	2.797
820.0	2.793
820.5	2.776
821.0	2.784
821.5	2.798
822.0	2.827
822.5	2.849
823.0	2.874
823.5	2.893
824.0	2.889
824.5	2.859
825.0	2.808
825.5	2.762
826.0	2.733
826.5	2.716
827.0	2.719
827.5	2.743
828.0	2.767
828.5	2.786
829.0	2.789
829.5	2.784
830.0	2.767
830.5	2.747
831.0	2.734
831.5	2.741
832.0	2.750
832.5	2.768
833.0	2.786
833.5	2.802
834.0	2.812
834.5	2.820
835.0	2.814
835.5	2.808
836.0	2.796
836.5	2.795
837.0	2.793
837.5	2.792
838.0	2.786
838.5	2.777
839.0	2.770
839.5	2.783
840.0	2.781
840.5	2.795
841.0	2.786
841.5	2.793
842.0	2.800
842.5	2.769
843.0	2.740
843.5	2.702
844.0	2.693
844.5	2.704
845.0	2.689
845.5	2.685
846.0	2.688
846.5	2.687
847.0	2.695
847.5	2.689
848.0	2.704
848.5	2.741
849.0	2.801
849.5	2.839
850.0	2.838


6.2
5/21/2024 5:45 PM
Wavelength (nm)	10mm Absorbance
//WLCalib: Shift 	0.10667	
//WLCalib: 261S 	-0.59000	
//WLCalib: 362S 	-0.96000	
//WLCalib: 484S 	-0.30000	
//WLCalib: 529S 	-0.11000	
//WLCalib: 823S 	-0.54000	
//QSpecEnd: 
190.0	-0.019
190.5	-0.089
191.0	0.003
191.5	-0.125
192.0	-0.271
192.5	-0.217
193.0	-0.247
193.5	-0.271
194.0	-0.319
194.5	-0.508
195.0	-0.540
195.5	-0.380
196.0	-0.308
196.5	-0.293
197.0	-0.268
197.5	-0.243
198.0	-0.241
198.5	-0.273
199.0	-0.472
199.5	-0.456
200.0	-0.218
200.5	-0.083
201.0	0.107
201.5	0.543
202.0	1.178
202.5	1.891
203.0	2.733
203.5	3.604
204.0	4.423
204.5	5.232
205.0	5.879
205.5	6.205
206.0	6.572
206.5	6.970
207.0	7.369
207.5	7.761
208.0	8.148
208.5	8.510
209.0	8.753
209.5	9.053
210.0	9.196
210.5	9.380
211.0	9.497
211.5	9.652
212.0	9.935
212.5	10.037
213.0	10.040
213.5	10.100
214.0	10.171
214.5	10.248
215.0	10.287
215.5	10.384
216.0	10.509
216.5	10.758
217.0	11.048
217.5	11.322
218.0	11.539
218.5	11.898
219.0	12.238
219.5	12.626
220.0	12.966
220.5	13.320
221.0	13.667
221.5	13.999
222.0	14.301
222.5	14.543
223.0	14.719
223.5	14.958
224.0	15.225
224.5	15.550
225.0	15.893
225.5	16.396
226.0	17.153
226.5	18.203
227.0	19.437
227.5	20.640
228.0	21.733
228.5	22.638
229.0	23.250
229.5	23.515
230.0	23.420
230.5	23.101
231.0	22.686
231.5	22.286
232.0	21.937
232.5	21.634
233.0	21.415
233.5	21.352
234.0	21.455
234.5	21.648
235.0	21.845
235.5	22.022
236.0	22.179
236.5	22.349
237.0	22.526
237.5	22.680
238.0	22.876
238.5	23.247
239.0	23.727
239.5	24.189
240.0	24.438
240.5	24.309
241.0	23.946
241.5	23.382
242.0	22.724
242.5	22.073
243.0	21.394
243.5	20.869
244.0	20.577
244.5	20.149
245.0	19.606
245.5	18.948
246.0	18.446
246.5	18.021
247.0	17.706
247.5	17.524
248.0	17.298
248.5	17.197
249.0	17.091
249.5	16.903
250.0	16.740
250.5	16.566
251.0	16.385
251.5	16.274
252.0	16.146
252.5	16.199
253.0	16.126
253.5	16.102
254.0	16.033
254.5	15.972
255.0	15.982
255.5	15.966
256.0	15.969
256.5	16.001
257.0	16.060
257.5	16.129
258.0	16.090
258.5	16.060
259.0	15.963
259.5	15.907
260.0	15.920
260.5	15.904
261.0	15.905
261.5	15.909
262.0	15.932
262.5	15.968
263.0	15.953
263.5	15.922
264.0	15.930
264.5	15.925
265.0	15.987
265.5	16.049
266.0	16.089
266.5	16.185
267.0	16.311
267.5	16.361
268.0	16.379
268.5	16.389
269.0	16.335
269.5	16.238
270.0	16.189
270.5	16.110
271.0	16.003
271.5	15.986
272.0	15.913
272.5	15.797
273.0	15.712
273.5	15.637
274.0	15.549
274.5	15.486
275.0	15.403
275.5	15.332
276.0	15.297
276.5	15.231
277.0	15.149
277.5	15.080
278.0	14.996
278.5	14.931
279.0	14.796
279.5	14.638
280.0	14.428
280.5	14.218
281.0	14.016
281.5	13.752
282.0	13.551
282.5	13.350
283.0	13.170
283.5	12.982
284.0	12.776
284.5	12.628
285.0	12.473
285.5	12.325
286.0	12.183
286.5	12.044
287.0	11.942
287.5	11.829
288.0	11.736
288.5	11.628
289.0	11.505
289.5	11.407
290.0	11.276
290.5	11.160
291.0	11.043
291.5	10.934
292.0	10.842
292.5	10.745
293.0	10.673
293.5	10.590
294.0	10.497
294.5	10.407
295.0	10.313
295.5	10.247
296.0	10.168
296.5	10.104
297.0	10.033
297.5	9.964
298.0	9.882
298.5	9.816
299.0	9.730
299.5	9.643
300.0	9.572
300.5	9.505
301.0	9.440
301.5	9.388
302.0	9.325
302.5	9.249
303.0	9.189
303.5	9.138
304.0	9.063
304.5	9.005
305.0	8.954
305.5	8.900
306.0	8.842
306.5	8.789
307.0	8.729
307.5	8.678
308.0	8.647
308.5	8.596
309.0	8.533
309.5	8.488
310.0	8.435
310.5	8.384
311.0	8.330
311.5	8.284
312.0	8.238
312.5	8.197
313.0	8.153
313.5	8.103
314.0	8.051
314.5	8.003
315.0	7.958
315.5	7.910
316.0	7.865
316.5	7.812
317.0	7.767
317.5	7.727
318.0	7.670
318.5	7.618
319.0	7.575
319.5	7.516
320.0	7.458
320.5	7.408
321.0	7.353
321.5	7.293
322.0	7.248
322.5	7.199
323.0	7.139
323.5	7.081
324.0	7.030
324.5	6.968
325.0	6.926
325.5	6.890
326.0	6.850
326.5	6.803
327.0	6.759
327.5	6.700
328.0	6.635
328.5	6.558
329.0	6.489
329.5	6.418
330.0	6.352
330.5	6.293
331.0	6.227
331.5	6.168
332.0	6.114
332.5	6.050
333.0	5.995
333.5	5.929
334.0	5.869
334.5	5.807
335.0	5.740
335.5	5.689
336.0	5.613
336.5	5.541
337.0	5.459
337.5	5.386
338.0	5.320
338.5	5.244
339.0	5.172
339.5	5.102
340.0	5.034
340.5	4.958
341.0	4.877
341.5	4.793
342.0	4.715
342.5	4.644
343.0	4.574
343.5	4.500
344.0	4.434
344.5	4.364
345.0	4.298
345.5	4.223
346.0	4.159
346.5	4.093
347.0	4.031
347.5	3.962
348.0	3.897
348.5	3.822
349.0	3.763
349.5	3.698
350.0	3.639
350.5	3.576
351.0	3.509
351.5	3.441
352.0	3.378
352.5	3.316
353.0	3.253
353.5	3.187
354.0	3.130
354.5	3.071
355.0	3.015
355.5	2.960
356.0	2.903
356.5	2.844
357.0	2.791
357.5	2.746
358.0	2.690
358.5	2.641
359.0	2.593
359.5	2.543
360.0	2.496
360.5	2.449
361.0	2.408
361.5	2.367
362.0	2.331
362.5	2.300
363.0	2.268
363.5	2.235
364.0	2.197
364.5	2.159
365.0	2.118
365.5	2.078
366.0	2.048
366.5	2.017
367.0	1.984
367.5	1.959
368.0	1.928
368.5	1.899
369.0	1.876
369.5	1.846
370.0	1.815
370.5	1.792
371.0	1.776
371.5	1.757
372.0	1.735
372.5	1.714
373.0	1.684
373.5	1.662
374.0	1.643
374.5	1.620
375.0	1.599
375.5	1.582
376.0	1.564
376.5	1.548
377.0	1.534
377.5	1.519
378.0	1.502
378.5	1.490
379.0	1.483
379.5	1.477
380.0	1.455
380.5	1.444
381.0	1.422
381.5	1.406
382.0	1.389
382.5	1.375
383.0	1.366
383.5	1.359
384.0	1.349
384.5	1.339
385.0	1.321
385.5	1.313
386.0	1.299
386.5	1.284
387.0	1.274
387.5	1.263
388.0	1.255
388.5	1.247
389.0	1.237
389.5	1.228
390.0	1.218
390.5	1.212
391.0	1.207
391.5	1.199
392.0	1.198
392.5	1.189
393.0	1.177
393.5	1.167
394.0	1.160
394.5	1.150
395.0	1.145
395.5	1.142
396.0	1.138
396.5	1.133
397.0	1.129
397.5	1.120
398.0	1.108
398.5	1.095
399.0	1.086
399.5	1.077
400.0	1.069
400.5	1.066
401.0	1.066
401.5	1.061
402.0	1.055
402.5	1.049
403.0	1.037
403.5	1.023
404.0	1.017
404.5	1.007
405.0	0.998
405.5	0.993
406.0	0.985
406.5	0.977
407.0	0.969
407.5	0.958
408.0	0.948
408.5	0.941
409.0	0.940
409.5	0.936
410.0	0.935
410.5	0.930
411.0	0.922
411.5	0.917
412.0	0.908
412.5	0.898
413.0	0.894
413.5	0.890
414.0	0.887
414.5	0.884
415.0	0.885
415.5	0.880
416.0	0.877
416.5	0.870
417.0	0.860
417.5	0.854
418.0	0.848
418.5	0.841
419.0	0.837
419.5	0.831
420.0	0.825
420.5	0.818
421.0	0.811
421.5	0.803
422.0	0.797
422.5	0.792
423.0	0.788
423.5	0.789
424.0	0.789
424.5	0.785
425.0	0.779
425.5	0.772
426.0	0.764
426.5	0.759
427.0	0.753
427.5	0.747
428.0	0.741
428.5	0.736
429.0	0.728
429.5	0.720
430.0	0.710
430.5	0.701
431.0	0.697
431.5	0.693
432.0	0.689
432.5	0.685
433.0	0.681
433.5	0.680
434.0	0.675
434.5	0.673
435.0	0.670
435.5	0.664
436.0	0.662
436.5	0.657
437.0	0.650
437.5	0.643
438.0	0.636
438.5	0.630
439.0	0.626
439.5	0.626
440.0	0.627
440.5	0.627
441.0	0.628
441.5	0.626
442.0	0.622
442.5	0.616
443.0	0.607
443.5	0.597
444.0	0.594
444.5	0.593
445.0	0.594
445.5	0.591
446.0	0.592
446.5	0.589
447.0	0.584
447.5	0.576
448.0	0.566
448.5	0.557
449.0	0.551
449.5	0.548
450.0	0.546
450.5	0.547
451.0	0.549
451.5	0.548
452.0	0.549
452.5	0.548
453.0	0.547
453.5	0.545
454.0	0.541
454.5	0.535
455.0	0.531
455.5	0.527
456.0	0.522
456.5	0.517
457.0	0.516
457.5	0.513
458.0	0.513
458.5	0.513
459.0	0.512
459.5	0.507
460.0	0.505
460.5	0.503
461.0	0.504
461.5	0.505
462.0	0.504
462.5	0.503
463.0	0.500
463.5	0.498
464.0	0.496
464.5	0.490
465.0	0.486
465.5	0.484
466.0	0.485
466.5	0.486
467.0	0.484
467.5	0.483
468.0	0.480
468.5	0.476
469.0	0.474
469.5	0.471
470.0	0.468
470.5	0.466
471.0	0.465
471.5	0.466
472.0	0.462
472.5	0.460
473.0	0.454
473.5	0.454
474.0	0.450
474.5	0.447
475.0	0.449
475.5	0.450
476.0	0.452
476.5	0.450
477.0	0.446
477.5	0.446
478.0	0.442
478.5	0.445
479.0	0.441
479.5	0.441
480.0	0.440
480.5	0.438
481.0	0.440
481.5	0.442
482.0	0.444
482.5	0.447
483.0	0.451
483.5	0.456
484.0	0.457
484.5	0.456
485.0	0.450
485.5	0.447
486.0	0.446
486.5	0.446
487.0	0.443
487.5	0.441
488.0	0.438
488.5	0.435
489.0	0.435
489.5	0.436
490.0	0.439
490.5	0.441
491.0	0.444
491.5	0.441
492.0	0.436
492.5	0.432
493.0	0.429
493.5	0.424
494.0	0.424
494.5	0.428
495.0	0.433
495.5	0.432
496.0	0.429
496.5	0.418
497.0	0.412
497.5	0.409
498.0	0.410
498.5	0.408
499.0	0.407
499.5	0.413
500.0	0.416
500.5	0.418
501.0	0.419
501.5	0.416
502.0	0.414
502.5	0.416
503.0	0.420
503.5	0.424
504.0	0.424
504.5	0.429
505.0	0.430
505.5	0.431
506.0	0.431
506.5	0.430
507.0	0.426
507.5	0.425
508.0	0.421
508.5	0.419
509.0	0.417
509.5	0.414
510.0	0.409
510.5	0.404
511.0	0.403
511.5	0.403
512.0	0.406
512.5	0.408
513.0	0.410
513.5	0.412
514.0	0.417
514.5	0.420
515.0	0.417
515.5	0.415
516.0	0.413
516.5	0.410
517.0	0.415
517.5	0.416
518.0	0.415
518.5	0.412
519.0	0.412
519.5	0.413
520.0	0.406
520.5	0.401
521.0	0.397
521.5	0.392
522.0	0.391
522.5	0.387
523.0	0.384
523.5	0.389
524.0	0.394
524.5	0.399
525.0	0.399
525.5	0.399
526.0	0.397
526.5	0.395
527.0	0.394
527.5	0.392
528.0	0.388
528.5	0.391
529.0	0.395
529.5	0.396
530.0	0.397
530.5	0.398
531.0	0.399
531.5	0.403
532.0	0.404
532.5	0.402
533.0	0.395
533.5	0.393
534.0	0.392
534.5	0.392
535.0	0.389
535.5	0.396
536.0	0.397
536.5	0.396
537.0	0.394
537.5	0.392
538.0	0.386
538.5	0.382
539.0	0.376
539.5	0.374
540.0	0.373
540.5	0.380
541.0	0.381
541.5	0.377
542.0	0.381
542.5	0.382
543.0	0.381
543.5	0.380
544.0	0.375
544.5	0.376
545.0	0.375
545.5	0.371
546.0	0.367
546.5	0.362
547.0	0.362
547.5	0.355
548.0	0.357
548.5	0.359
549.0	0.355
549.5	0.354
550.0	0.345
550.5	0.336
551.0	0.334
551.5	0.333
552.0	0.329
552.5	0.324
553.0	0.328
553.5	0.326
554.0	0.325
554.5	0.327
555.0	0.319
555.5	0.320
556.0	0.326
556.5	0.331
557.0	0.329
557.5	0.329
558.0	0.327
558.5	0.320
559.0	0.316
559.5	0.316
560.0	0.314
560.5	0.312
561.0	0.313
561.5	0.312
562.0	0.305
562.5	0.300
563.0	0.293
563.5	0.286
564.0	0.280
564.5	0.279
565.0	0.284
565.5	0.287
566.0	0.298
566.5	0.302
567.0	0.300
567.5	0.303
568.0	0.304
568.5	0.299
569.0	0.293
569.5	0.288
570.0	0.286
570.5	0.286
571.0	0.285
571.5	0.274
572.0	0.262
572.5	0.259
573.0	0.254
573.5	0.251
574.0	0.251
574.5	0.256
575.0	0.257
575.5	0.264
576.0	0.263
576.5	0.255
577.0	0.248
577.5	0.244
578.0	0.239
578.5	0.235
579.0	0.228
579.5	0.225
580.0	0.225
580.5	0.228
581.0	0.232
581.5	0.238
582.0	0.243
582.5	0.251
583.0	0.255
583.5	0.258
584.0	0.241
584.5	0.229
585.0	0.220
585.5	0.211
586.0	0.208
586.5	0.213
587.0	0.218
587.5	0.228
588.0	0.231
588.5	0.230
589.0	0.216
589.5	0.207
590.0	0.197
590.5	0.193
591.0	0.193
591.5	0.197
592.0	0.204
592.5	0.209
593.0	0.211
593.5	0.212
594.0	0.214
594.5	0.215
595.0	0.206
595.5	0.196
596.0	0.184
596.5	0.175
597.0	0.169
597.5	0.164
598.0	0.161
598.5	0.160
599.0	0.164
599.5	0.170
600.0	0.168
600.5	0.167
601.0	0.167
601.5	0.168
602.0	0.168
602.5	0.174
603.0	0.177
603.5	0.179
604.0	0.185
604.5	0.190
605.0	0.189
605.5	0.185
606.0	0.176
606.5	0.167
607.0	0.157
607.5	0.157
608.0	0.156
608.5	0.156
609.0	0.163
609.5	0.166
610.0	0.165
610.5	0.154
611.0	0.149
611.5	0.141
612.0	0.136
612.5	0.131
613.0	0.128
613.5	0.137
614.0	0.142
614.5	0.146
615.0	0.147
615.5	0.142
616.0	0.136
616.5	0.129
617.0	0.128
617.5	0.124
618.0	0.126
618.5	0.133
619.0	0.141
619.5	0.146
620.0	0.147
620.5	0.146
621.0	0.136
621.5	0.131
622.0	0.125
622.5	0.122
623.0	0.122
623.5	0.124
624.0	0.128
624.5	0.121
625.0	0.122
625.5	0.131
626.0	0.136
626.5	0.149
627.0	0.157
627.5	0.163
628.0	0.164
628.5	0.156
629.0	0.143
629.5	0.134
630.0	0.129
630.5	0.124
631.0	0.124
631.5	0.128
632.0	0.134
632.5	0.131
633.0	0.131
633.5	0.133
634.0	0.131
634.5	0.136
635.0	0.132
635.5	0.123
636.0	0.118
636.5	0.115
637.0	0.113
637.5	0.114
638.0	0.120
638.5	0.128
639.0	0.127
639.5	0.124
640.0	0.121
640.5	0.117
641.0	0.112
641.5	0.103
642.0	0.095
642.5	0.096
643.0	0.104
643.5	0.104
644.0	0.103
644.5	0.100
645.0	0.098
645.5	0.094
646.0	0.089
646.5	0.084
647.0	0.073
647.5	0.072
648.0	0.076
648.5	0.079
649.0	0.088
649.5	0.092
650.0	0.098
650.5	0.104
651.0	0.100
651.5	0.102
652.0	0.093
652.5	0.092
653.0	0.084
653.5	0.075
654.0	0.073
654.5	0.072
655.0	0.071
655.5	0.068
656.0	0.070
656.5	0.079
657.0	0.090
657.5	0.101
658.0	0.105
658.5	0.103
659.0	0.106
659.5	0.112
660.0	0.110
660.5	0.107
661.0	0.111
661.5	0.111
662.0	0.107
662.5	0.106
663.0	0.105
663.5	0.092
664.0	0.093
664.5	0.095
665.0	0.094
665.5	0.093
666.0	0.099
666.5	0.099
667.0	0.092
667.5	0.092
668.0	0.084
668.5	0.080
669.0	0.091
669.5	0.096
670.0	0.094
670.5	0.094
671.0	0.090
671.5	0.079
672.0	0.064
672.5	0.050
673.0	0.038
673.5	0.038
674.0	0.041
674.5	0.045
675.0	0.053
675.5	0.066
676.0	0.078
676.5	0.084
677.0	0.095
677.5	0.104
678.0	0.110
678.5	0.114
679.0	0.109
679.5	0.108
680.0	0.101
680.5	0.092
681.0	0.077
681.5	0.062
682.0	0.059
682.5	0.053
683.0	0.052
683.5	0.058
684.0	0.058
684.5	0.066
685.0	0.073
685.5	0.073
686.0	0.075
686.5	0.081
687.0	0.092
687.5	0.091
688.0	0.096
688.5	0.097
689.0	0.106
689.5	0.113
690.0	0.115
690.5	0.109
691.0	0.113
691.5	0.108
692.0	0.105
692.5	0.091
693.0	0.085
693.5	0.078
694.0	0.079
694.5	0.080
695.0	0.082
695.5	0.084
696.0	0.088
696.5	0.090
697.0	0.097
697.5	0.104
698.0	0.119
698.5	0.114
699.0	0.113
699.5	0.117
700.0	0.115
700.5	0.102
701.0	0.085
701.5	0.070
702.0	0.062
702.5	0.066
703.0	0.064
703.5	0.054
704.0	0.061
704.5	0.068
705.0	0.068
705.5	0.068
706.0	0.065
706.5	0.066
707.0	0.067
707.5	0.068
708.0	0.060
708.5	0.054
709.0	0.057
709.5	0.065
710.0	0.072
710.5	0.085
711.0	0.092
711.5	0.101
712.0	0.099
712.5	0.093
713.0	0.082
713.5	0.070
714.0	0.059
714.5	0.052
715.0	0.040
715.5	0.033
716.0	0.036
716.5	0.043
717.0	0.050
717.5	0.065
718.0	0.078
718.5	0.084
719.0	0.089
719.5	0.085
720.0	0.075
720.5	0.075
721.0	0.068
721.5	0.070
722.0	0.076
722.5	0.085
723.0	0.088
723.5	0.078
724.0	0.077
724.5	0.067
725.0	0.069
725.5	0.072
726.0	0.063
726.5	0.064
727.0	0.070
727.5	0.065
728.0	0.054
728.5	0.037
729.0	0.038
729.5	0.042
730.0	0.051
730.5	0.048
731.0	0.044
731.5	0.042
732.0	0.040
732.5	0.032
733.0	0.023
733.5	0.019
734.0	0.024
734.5	0.033
735.0	0.036
735.5	0.035
736.0	0.034
736.5	0.037
737.0	0.039
737.5	0.039
738.0	0.046
738.5	0.053
739.0	0.066
739.5	0.072
740.0	0.071
740.5	0.062
741.0	0.048
741.5	0.036
742.0	0.025
742.5	0.015
743.0	0.019
743.5	0.028
744.0	0.040
744.5	0.043
745.0	0.051
745.5	0.059
746.0	0.060
746.5	0.065
747.0	0.070
747.5	0.065
748.0	0.060
748.5	0.060
749.0	0.061
749.5	0.056
750.0	0.054
750.5	0.053
751.0	0.049
751.5	0.052
752.0	0.056
752.5	0.055
753.0	0.058
753.5	0.060
754.0	0.061
754.5	0.063
755.0	0.061
755.5	0.052
756.0	0.046
756.5	0.055
757.0	0.057
757.5	0.055
758.0	0.055
758.5	0.053
759.0	0.053
759.5	0.054
760.0	0.045
760.5	0.035
761.0	0.038
761.5	0.048
762.0	0.053
762.5	0.062
763.0	0.074
763.5	0.089
764.0	0.099
764.5	0.103
765.0	0.110
765.5	0.110
766.0	0.107
766.5	0.103
767.0	0.100
767.5	0.096
768.0	0.088
768.5	0.074
769.0	0.070
769.5	0.061
770.0	0.055
770.5	0.047
771.0	0.044
771.5	0.042
772.0	0.037
772.5	0.043
773.0	0.040
773.5	0.024
774.0	0.014
774.5	0.002
775.0	0.006
775.5	0.020
776.0	0.028
776.5	0.032
777.0	0.032
777.5	0.036
778.0	0.031
778.5	0.018
779.0	0.014
779.5	0.017
780.0	0.026
780.5	0.031
781.0	0.027
781.5	0.022
782.0	0.014
782.5	0.025
783.0	0.035
783.5	0.051
784.0	0.071
784.5	0.093
785.0	0.108
785.5	0.112
786.0	0.120
786.5	0.124
787.0	0.120
787.5	0.121
788.0	0.120
788.5	0.108
789.0	0.087
789.5	0.072
790.0	0.046
790.5	0.029
791.0	0.023
791.5	0.017
792.0	0.003
792.5	0.012
793.0	0.031
793.5	0.035
794.0	0.034
794.5	0.044
795.0	0.044
795.5	0.051
796.0	0.058
796.5	0.050
797.0	0.031
797.5	0.023
798.0	0.010
798.5	0.001
799.0	-0.003
799.5	-0.002
800.0	0.008
800.5	0.015
801.0	0.031
801.5	0.036
802.0	0.041
802.5	0.051
803.0	0.056
803.5	0.072
804.0	0.070
804.5	0.069
805.0	0.078
805.5	0.073
806.0	0.072
806.5	0.063
807.0	0.063
807.5	0.064
808.0	0.059
808.5	0.053
809.0	0.035
809.5	0.034
810.0	0.033
810.5	0.024
811.0	0.021
811.5	0.004
812.0	0.004
812.5	0.009
813.0	0.019
813.5	0.017
814.0	0.022
814.5	0.026
815.0	0.031
815.5	0.027
816.0	0.019
816.5	-0.002
817.0	0.000
817.5	0.005
818.0	0.013
818.5	0.012
819.0	0.026
819.5	0.030
820.0	0.046
820.5	0.051
821.0	0.060
821.5	0.072
822.0	0.092
822.5	0.110
823.0	0.129
823.5	0.133
824.0	0.125
824.5	0.099
825.0	0.073
825.5	0.049
826.0	0.037
826.5	0.031
827.0	0.028
827.5	0.040
828.0	0.051
828.5	0.053
829.0	0.055
829.5	0.055
830.0	0.050
830.5	0.043
831.0	0.033
831.5	0.029
832.0	0.026
832.5	0.031
833.0	0.031
833.5	0.032
834.0	0.053
834.5	0.075
835.0	0.080
835.5	0.080
836.0	0.066
836.5	0.072
837.0	0.062
837.5	0.054
838.0	0.039
838.5	0.025
839.0	0.020
839.5	0.022
840.0	0.014
840.5	0.021
841.0	0.019
841.5	0.024
842.0	0.017
842.5	0.013
843.0	0.003
843.5	-0.007
844.0	-0.003
844.5	0.016
845.0	0.028
845.5	0.038
846.0	0.032
846.5	0.034
847.0	0.024
847.5	0.016
848.0	0.016
848.5	0.042
849.0	0.084
849.5	0.110
850.0	0.110


7
5/21/2024 5:46 PM
Wavelength (nm)	10mm Absorbance
//WLCalib: Shift 	0.10667	
//WLCalib: 261S 	-0.59000	
//WLCalib: 362S 	-0.96000	
//WLCalib: 484S 	-0.30000	
//WLCalib: 529S 	-0.11000	
//WLCalib: 823S 	-0.54000	
//QSpecEnd: 
190.0	0.509
190.5	0.439
191.0	0.387
191.5	0.238
192.0	-0.003
192.5	0.007
193.0	0.148
193.5	0.189
194.0	0.272
194.5	0.532
195.0	0.557
195.5	0.488
196.0	0.491
196.5	0.434
197.0	0.589
197.5	0.476
198.0	0.339
198.5	0.359
199.0	0.309
199.5	0.163
200.0	0.319
200.5	0.560
201.0	1.154
201.5	1.747
202.0	2.527
202.5	3.309
203.0	4.078
203.5	4.663
204.0	4.950
204.5	5.459
205.0	6.066
205.5	6.518
206.0	6.638
206.5	6.788
207.0	6.909
207.5	7.111
208.0	7.280
208.5	7.348
209.0	7.539
209.5	7.789
210.0	8.004
210.5	8.283
211.0	8.513
211.5	8.723
212.0	8.861
212.5	8.989
213.0	9.069
213.5	9.065
214.0	9.116
214.5	9.132
215.0	9.221
215.5	9.442
216.0	9.627
216.5	9.824
217.0	10.025
217.5	10.289
218.0	10.566
218.5	10.880
219.0	11.288
219.5	11.706
220.0	12.152
220.5	12.603
221.0	12.992
221.5	13.318
222.0	13.665
222.5	13.984
223.0	14.294
223.5	14.597
224.0	14.962
224.5	15.359
225.0	15.812
225.5	16.417
226.0	17.284
226.5	18.402
227.0	19.686
227.5	21.003
228.0	22.197
228.5	23.171
229.0	23.837
229.5	24.149
230.0	24.112
230.5	23.848
231.0	23.488
231.5	23.142
232.0	22.857
232.5	22.619
233.0	22.471
233.5	22.456
234.0	22.588
234.5	22.833
235.0	23.046
235.5	23.133
236.0	23.208
236.5	23.321
237.0	23.376
237.5	23.401
238.0	23.793
238.5	24.024
239.0	24.102
239.5	24.197
240.0	24.048
240.5	23.759
241.0	23.546
241.5	23.190
242.0	22.769
242.5	22.519
243.0	22.425
243.5	21.995
244.0	21.651
244.5	21.429
245.0	21.116
245.5	20.834
246.0	20.609
246.5	20.340
247.0	20.225
247.5	20.061
248.0	19.898
248.5	19.738
249.0	19.625
249.5	19.551
250.0	19.441
250.5	19.238
251.0	19.104
251.5	18.984
252.0	18.966
252.5	18.750
253.0	18.698
253.5	18.519
254.0	18.383
254.5	18.382
255.0	18.247
255.5	18.151
256.0	18.191
256.5	18.095
257.0	18.103
257.5	18.019
258.0	18.095
258.5	18.102
259.0	18.206
259.5	18.237
260.0	18.189
260.5	18.212
261.0	18.285
261.5	18.251
262.0	18.273
262.5	18.198
263.0	18.089
263.5	18.049
264.0	17.994
264.5	18.004
265.0	18.046
265.5	18.071
266.0	18.181
266.5	18.157
267.0	18.114
267.5	17.927
268.0	17.856
268.5	17.878
269.0	17.851
269.5	17.981
270.0	18.057
270.5	17.992
271.0	17.982
271.5	17.939
272.0	17.809
272.5	17.678
273.0	17.582
273.5	17.542
274.0	17.450
274.5	17.493
275.0	17.381
275.5	17.318
276.0	17.346
276.5	17.370
277.0	17.311
277.5	17.295
278.0	17.185
278.5	17.156
279.0	16.973
279.5	16.786
280.0	16.560
280.5	16.394
281.0	16.220
281.5	16.049
282.0	15.939
282.5	15.896
283.0	15.812
283.5	15.732
284.0	15.587
284.5	15.504
285.0	15.409
285.5	15.239
286.0	15.096
286.5	14.924
287.0	14.781
287.5	14.657
288.0	14.520
288.5	14.364
289.0	14.248
289.5	14.131
290.0	13.989
290.5	13.853
291.0	13.707
291.5	13.554
292.0	13.412
292.5	13.306
293.0	13.186
293.5	13.093
294.0	13.010
294.5	12.934
295.0	12.860
295.5	12.809
296.0	12.724
296.5	12.636
297.0	12.540
297.5	12.441
298.0	12.323
298.5	12.203
299.0	12.098
299.5	12.006
300.0	11.927
300.5	11.874
301.0	11.820
301.5	11.767
302.0	11.702
302.5	11.653
303.0	11.590
303.5	11.523
304.0	11.477
304.5	11.396
305.0	11.317
305.5	11.267
306.0	11.207
306.5	11.143
307.0	11.081
307.5	11.044
308.0	11.011
308.5	10.968
309.0	10.936
309.5	10.876
310.0	10.834
310.5	10.799
311.0	10.752
311.5	10.713
312.0	10.679
312.5	10.638
313.0	10.608
313.5	10.568
314.0	10.536
314.5	10.500
315.0	10.463
315.5	10.409
316.0	10.350
316.5	10.295
317.0	10.251
317.5	10.194
318.0	10.151
318.5	10.123
319.0	10.081
319.5	10.073
320.0	10.040
320.5	10.001
321.0	9.956
321.5	9.910
322.0	9.862
322.5	9.824
323.0	9.787
323.5	9.741
324.0	9.686
324.5	9.679
325.0	9.628
325.5	9.589
326.0	9.555
326.5	9.509
327.0	9.461
327.5	9.436
328.0	9.384
328.5	9.327
329.0	9.274
329.5	9.245
330.0	9.192
330.5	9.155
331.0	9.102
331.5	9.046
332.0	8.975
332.5	8.917
333.0	8.850
333.5	8.786
334.0	8.725
334.5	8.679
335.0	8.626
335.5	8.580
336.0	8.519
336.5	8.464
337.0	8.405
337.5	8.334
338.0	8.275
338.5	8.216
339.0	8.163
339.5	8.098
340.0	8.021
340.5	7.956
341.0	7.895
341.5	7.833
342.0	7.792
342.5	7.708
343.0	7.654
343.5	7.601
344.0	7.540
344.5	7.466
345.0	7.374
345.5	7.299
346.0	7.237
346.5	7.181
347.0	7.137
347.5	7.062
348.0	7.010
348.5	6.949
349.0	6.888
349.5	6.820
350.0	6.737
350.5	6.668
351.0	6.610
351.5	6.548
352.0	6.489
352.5	6.429
353.0	6.377
353.5	6.311
354.0	6.258
354.5	6.195
355.0	6.132
355.5	6.076
356.0	6.026
356.5	5.970
357.0	5.913
357.5	5.870
358.0	5.819
358.5	5.771
359.0	5.724
359.5	5.665
360.0	5.613
360.5	5.563
361.0	5.520
361.5	5.473
362.0	5.427
362.5	5.400
363.0	5.362
363.5	5.327
364.0	5.284
364.5	5.239
365.0	5.193
365.5	5.149
366.0	5.110
366.5	5.073
367.0	5.043
367.5	5.022
368.0	4.987
368.5	4.955
369.0	4.924
369.5	4.891
370.0	4.860
370.5	4.827
371.0	4.805
371.5	4.775
372.0	4.745
372.5	4.717
373.0	4.679
373.5	4.651
374.0	4.628
374.5	4.606
375.0	4.584
375.5	4.561
376.0	4.544
376.5	4.529
377.0	4.513
377.5	4.501
378.0	4.480
378.5	4.461
379.0	4.447
379.5	4.427
380.0	4.400
380.5	4.379
381.0	4.358
381.5	4.339
382.0	4.314
382.5	4.296
383.0	4.274
383.5	4.253
384.0	4.237
384.5	4.221
385.0	4.201
385.5	4.184
386.0	4.171
386.5	4.154
387.0	4.140
387.5	4.128
388.0	4.117
388.5	4.110
389.0	4.098
389.5	4.086
390.0	4.072
390.5	4.062
391.0	4.053
391.5	4.039
392.0	4.029
392.5	4.018
393.0	4.008
393.5	3.993
394.0	3.977
394.5	3.959
395.0	3.948
395.5	3.938
396.0	3.931
396.5	3.921
397.0	3.910
397.5	3.900
398.0	3.889
398.5	3.876
399.0	3.867
399.5	3.855
400.0	3.847
400.5	3.841
401.0	3.840
401.5	3.825
402.0	3.809
402.5	3.796
403.0	3.783
403.5	3.770
404.0	3.761
404.5	3.751
405.0	3.744
405.5	3.739
406.0	3.734
406.5	3.723
407.0	3.718
407.5	3.708
408.0	3.701
408.5	3.689
409.0	3.677
409.5	3.667
410.0	3.661
410.5	3.653
411.0	3.643
411.5	3.636
412.0	3.632
412.5	3.622
413.0	3.617
413.5	3.608
414.0	3.600
414.5	3.599
415.0	3.593
415.5	3.587
416.0	3.584
416.5	3.576
417.0	3.570
417.5	3.557
418.0	3.550
418.5	3.545
419.0	3.540
419.5	3.535
420.0	3.528
420.5	3.523
421.0	3.517
421.5	3.508
422.0	3.499
422.5	3.489
423.0	3.486
423.5	3.485
424.0	3.482
424.5	3.478
425.0	3.472
425.5	3.462
426.0	3.455
426.5	3.444
427.0	3.433
427.5	3.426
428.0	3.417
428.5	3.411
429.0	3.405
429.5	3.400
430.0	3.391
430.5	3.384
431.0	3.381
431.5	3.372
432.0	3.364
432.5	3.358
433.0	3.354
433.5	3.353
434.0	3.350
434.5	3.347
435.0	3.342
435.5	3.339
436.0	3.336
436.5	3.328
437.0	3.323
437.5	3.318
438.0	3.318
438.5	3.313
439.0	3.311
439.5	3.308
440.0	3.307
440.5	3.306
441.0	3.303
441.5	3.295
442.0	3.290
442.5	3.285
443.0	3.278
443.5	3.272
444.0	3.270
444.5	3.268
445.0	3.268
445.5	3.267
446.0	3.263
446.5	3.255
447.0	3.248
447.5	3.244
448.0	3.237
448.5	3.230
449.0	3.220
449.5	3.210
450.0	3.205
450.5	3.202
451.0	3.197
451.5	3.193
452.0	3.189
452.5	3.189
453.0	3.192
453.5	3.189
454.0	3.182
454.5	3.175
455.0	3.177
455.5	3.176
456.0	3.173
456.5	3.167
457.0	3.161
457.5	3.159
458.0	3.158
458.5	3.154
459.0	3.155
459.5	3.151
460.0	3.151
460.5	3.149
461.0	3.145
461.5	3.140
462.0	3.133
462.5	3.124
463.0	3.116
463.5	3.112
464.0	3.113
464.5	3.105
465.0	3.106
465.5	3.107
466.0	3.111
466.5	3.115
467.0	3.113
467.5	3.111
468.0	3.108
468.5	3.104
469.0	3.100
469.5	3.088
470.0	3.080
470.5	3.074
471.0	3.071
471.5	3.068
472.0	3.061
472.5	3.060
473.0	3.053
473.5	3.051
474.0	3.045
474.5	3.040
475.0	3.040
475.5	3.041
476.0	3.044
476.5	3.047
477.0	3.044
477.5	3.043
478.0	3.037
478.5	3.035
479.0	3.027
479.5	3.019
480.0	3.013
480.5	3.004
481.0	3.001
481.5	2.999
482.0	2.997
482.5	2.998
483.0	3.001
483.5	3.003
484.0	3.007
484.5	3.005
485.0	3.001
485.5	2.994
486.0	2.988
486.5	2.986
487.0	2.981
487.5	2.979
488.0	2.975
488.5	2.971
489.0	2.974
489.5	2.972
490.0	2.973
490.5	2.973
491.0	2.972
491.5	2.969
492.0	2.967
492.5	2.964
493.0	2.959
493.5	2.955
494.0	2.957
494.5	2.957
495.0	2.957
495.5	2.954
496.0	2.944
496.5	2.932
497.0	2.930
497.5	2.927
498.0	2.926
498.5	2.924
499.0	2.932
499.5	2.941
500.0	2.944
500.5	2.946
501.0	2.939
501.5	2.935
502.0	2.933
502.5	2.926
503.0	2.920
503.5	2.916
504.0	2.918
504.5	2.919
505.0	2.919
505.5	2.922
506.0	2.923
506.5	2.924
507.0	2.921
507.5	2.916
508.0	2.917
508.5	2.919
509.0	2.920
509.5	2.916
510.0	2.914
510.5	2.912
511.0	2.907
511.5	2.903
512.0	2.900
512.5	2.897
513.0	2.896
513.5	2.892
514.0	2.892
514.5	2.887
515.0	2.883
515.5	2.881
516.0	2.879
516.5	2.882
517.0	2.888
517.5	2.890
518.0	2.888
518.5	2.886
519.0	2.886
519.5	2.884
520.0	2.878
520.5	2.871
521.0	2.867
521.5	2.863
522.0	2.860
522.5	2.857
523.0	2.853
523.5	2.857
524.0	2.860
524.5	2.863
525.0	2.861
525.5	2.859
526.0	2.856
526.5	2.856
527.0	2.854
527.5	2.856
528.0	2.854
528.5	2.859
529.0	2.861
529.5	2.862
530.0	2.862
530.5	2.860
531.0	2.852
531.5	2.847
532.0	2.842
532.5	2.839
533.0	2.835
533.5	2.836
534.0	2.838
534.5	2.835
535.0	2.833
535.5	2.836
536.0	2.831
536.5	2.825
537.0	2.820
537.5	2.815
538.0	2.812
538.5	2.809
539.0	2.807
539.5	2.805
540.0	2.804
540.5	2.811
541.0	2.815
541.5	2.815
542.0	2.815
542.5	2.812
543.0	2.814
543.5	2.810
544.0	2.804
544.5	2.801
545.0	2.797
545.5	2.796
546.0	2.794
546.5	2.788
547.0	2.784
547.5	2.781
548.0	2.789
548.5	2.788
549.0	2.783
549.5	2.777
550.0	2.776
550.5	2.767
551.0	2.763
551.5	2.761
552.0	2.763
552.5	2.765
553.0	2.770
553.5	2.765
554.0	2.761
554.5	2.758
555.0	2.755
555.5	2.750
556.0	2.756
556.5	2.762
557.0	2.764
557.5	2.764
558.0	2.760
558.5	2.748
559.0	2.750
559.5	2.751
560.0	2.751
560.5	2.751
561.0	2.757
561.5	2.759
562.0	2.749
562.5	2.739
563.0	2.730
563.5	2.722
564.0	2.724
564.5	2.726
565.0	2.728
565.5	2.734
566.0	2.744
566.5	2.750
567.0	2.743
567.5	2.742
568.0	2.744
568.5	2.747
569.0	2.747
569.5	2.739
570.0	2.733
570.5	2.728
571.0	2.726
571.5	2.716
572.0	2.706
572.5	2.700
573.0	2.695
573.5	2.699
574.0	2.702
574.5	2.704
575.0	2.705
575.5	2.707
576.0	2.710
576.5	2.709
577.0	2.707
577.5	2.698
578.0	2.689
578.5	2.686
579.0	2.681
579.5	2.677
580.0	2.673
580.5	2.673
581.0	2.676
581.5	2.681
582.0	2.681
582.5	2.683
583.0	2.683
583.5	2.685
584.0	2.674
584.5	2.666
585.0	2.664
585.5	2.656
586.0	2.652
586.5	2.656
587.0	2.657
587.5	2.663
588.0	2.663
588.5	2.659
589.0	2.646
589.5	2.640
590.0	2.636
590.5	2.630
591.0	2.634
591.5	2.642
592.0	2.648
592.5	2.651
593.0	2.654
593.5	2.657
594.0	2.660
594.5	2.664
595.0	2.661
595.5	2.654
596.0	2.648
596.5	2.637
597.0	2.628
597.5	2.623
598.0	2.622
598.5	2.619
599.0	2.615
599.5	2.614
600.0	2.607
600.5	2.603
601.0	2.594
601.5	2.588
602.0	2.591
602.5	2.596
603.0	2.604
603.5	2.610
604.0	2.620
604.5	2.630
605.0	2.636
605.5	2.635
606.0	2.619
606.5	2.607
607.0	2.593
607.5	2.581
608.0	2.575
608.5	2.573
609.0	2.583
609.5	2.591
610.0	2.592
610.5	2.582
611.0	2.571
611.5	2.562
612.0	2.553
612.5	2.548
613.0	2.542
613.5	2.544
614.0	2.551
614.5	2.555
615.0	2.558
615.5	2.556
616.0	2.553
616.5	2.553
617.0	2.558
617.5	2.562
618.0	2.564
618.5	2.565
619.0	2.565
619.5	2.559
620.0	2.557
620.5	2.553
621.0	2.548
621.5	2.551
622.0	2.550
622.5	2.547
623.0	2.544
623.5	2.540
624.0	2.536
624.5	2.525
625.0	2.527
625.5	2.534
626.0	2.549
626.5	2.566
627.0	2.569
627.5	2.568
628.0	2.567
628.5	2.556
629.0	2.541
629.5	2.528
630.0	2.515
630.5	2.504
631.0	2.501
631.5	2.498
632.0	2.493
632.5	2.488
633.0	2.488
633.5	2.490
634.0	2.491
634.5	2.494
635.0	2.492
635.5	2.492
636.0	2.493
636.5	2.493
637.0	2.488
637.5	2.486
638.0	2.486
638.5	2.492
639.0	2.496
639.5	2.495
640.0	2.496
640.5	2.498
641.0	2.488
641.5	2.478
642.0	2.469
642.5	2.465
643.0	2.466
643.5	2.464
644.0	2.463
644.5	2.458
645.0	2.453
645.5	2.449
646.0	2.443
646.5	2.441
647.0	2.438
647.5	2.448
648.0	2.456
648.5	2.460
649.0	2.462
649.5	2.459
650.0	2.456
650.5	2.451
651.0	2.452
651.5	2.443
652.0	2.435
652.5	2.439
653.0	2.439
653.5	2.432
654.0	2.422
654.5	2.414
655.0	2.408
655.5	2.400
656.0	2.397
656.5	2.392
657.0	2.393
657.5	2.404
658.0	2.411
658.5	2.413
659.0	2.419
659.5	2.429
660.0	2.437
660.5	2.435
661.0	2.439
661.5	2.436
662.0	2.430
662.5	2.427
663.0	2.422
663.5	2.414
664.0	2.410
664.5	2.404
665.0	2.399
665.5	2.391
666.0	2.395
666.5	2.384
667.0	2.377
667.5	2.377
668.0	2.386
668.5	2.396
669.0	2.408
669.5	2.403
670.0	2.395
670.5	2.396
671.0	2.387
671.5	2.372
672.0	2.353
672.5	2.344
673.0	2.346
673.5	2.345
674.0	2.352
674.5	2.358
675.0	2.358
675.5	2.363
676.0	2.364
676.5	2.365
677.0	2.364
677.5	2.365
678.0	2.372
678.5	2.376
679.0	2.391
679.5	2.413
680.0	2.416
680.5	2.407
681.0	2.389
681.5	2.366
682.0	2.354
682.5	2.338
683.0	2.327
683.5	2.317
684.0	2.319
684.5	2.331
685.0	2.344
685.5	2.343
686.0	2.343
686.5	2.349
687.0	2.366
687.5	2.370
688.0	2.369
688.5	2.359
689.0	2.355
689.5	2.352
690.0	2.352
690.5	2.349
691.0	2.351
691.5	2.349
692.0	2.356
692.5	2.348
693.0	2.337
693.5	2.322
694.0	2.305
694.5	2.292
695.0	2.289
695.5	2.294
696.0	2.305
696.5	2.316
697.0	2.335
697.5	2.353
698.0	2.369
698.5	2.377
699.0	2.374
699.5	2.366
700.0	2.351
700.5	2.336
701.0	2.314
701.5	2.295
702.0	2.284
702.5	2.277
703.0	2.268
703.5	2.264
704.0	2.273
704.5	2.285
705.0	2.291
705.5	2.294
706.0	2.287
706.5	2.290
707.0	2.283
707.5	2.272
708.0	2.259
708.5	2.249
709.0	2.262
709.5	2.277
710.0	2.288
710.5	2.300
711.0	2.308
711.5	2.314
712.0	2.310
712.5	2.307
713.0	2.296
713.5	2.287
714.0	2.280
714.5	2.269
715.0	2.260
715.5	2.252
716.0	2.250
716.5	2.245
717.0	2.244
717.5	2.256
718.0	2.258
718.5	2.264
719.0	2.264
719.5	2.258
720.0	2.253
720.5	2.251
721.0	2.252
721.5	2.255
722.0	2.253
722.5	2.257
723.0	2.246
723.5	2.239
724.0	2.238
724.5	2.230
725.0	2.236
725.5	2.245
726.0	2.246
726.5	2.252
727.0	2.248
727.5	2.240
728.0	2.227
728.5	2.220
729.0	2.223
729.5	2.228
730.0	2.241
730.5	2.240
731.0	2.229
731.5	2.225
732.0	2.222
732.5	2.216
733.0	2.212
733.5	2.218
734.0	2.225
734.5	2.238
735.0	2.241
735.5	2.228
736.0	2.215
736.5	2.205
737.0	2.195
737.5	2.191
738.0	2.193
738.5	2.199
739.0	2.203
739.5	2.207
740.0	2.215
740.5	2.216
741.0	2.215
741.5	2.213
742.0	2.213
742.5	2.217
743.0	2.215
743.5	2.211
744.0	2.210
744.5	2.204
745.0	2.205
745.5	2.201
746.0	2.191
746.5	2.192
747.0	2.191
747.5	2.184
748.0	2.179
748.5	2.178
749.0	2.188
749.5	2.194
750.0	2.191
750.5	2.190
751.0	2.189
751.5	2.195
752.0	2.194
752.5	2.188
753.0	2.192
753.5	2.194
754.0	2.202
754.5	2.218
755.0	2.222
755.5	2.214
756.0	2.209
756.5	2.208
757.0	2.193
757.5	2.176
758.0	2.162
758.5	2.153
759.0	2.154
759.5	2.162
760.0	2.155
760.5	2.149
761.0	2.153
761.5	2.157
762.0	2.166
762.5	2.182
763.0	2.195
763.5	2.218
764.0	2.228
764.5	2.230
765.0	2.224
765.5	2.219
766.0	2.211
766.5	2.199
767.0	2.188
767.5	2.173
768.0	2.168
768.5	2.166
769.0	2.159
769.5	2.160
770.0	2.166
770.5	2.171
771.0	2.179
771.5	2.179
772.0	2.158
772.5	2.141
773.0	2.126
773.5	2.107
774.0	2.092
774.5	2.082
775.0	2.093
775.5	2.107
776.0	2.115
776.5	2.129
777.0	2.127
777.5	2.132
778.0	2.132
778.5	2.126
779.0	2.125
779.5	2.127
780.0	2.144
780.5	2.145
781.0	2.132
781.5	2.124
782.0	2.103
782.5	2.101
783.0	2.100
783.5	2.098
784.0	2.114
784.5	2.135
785.0	2.158
785.5	2.160
786.0	2.164
786.5	2.167
787.0	2.159
787.5	2.161
788.0	2.156
788.5	2.139
789.0	2.123
789.5	2.110
790.0	2.097
790.5	2.075
791.0	2.070
791.5	2.072
792.0	2.058
792.5	2.070
793.0	2.090
793.5	2.099
794.0	2.106
794.5	2.115
795.0	2.122
795.5	2.128
796.0	2.133
796.5	2.124
797.0	2.103
797.5	2.099
798.0	2.088
798.5	2.084
799.0	2.081
799.5	2.081
800.0	2.092
800.5	2.098
801.0	2.108
801.5	2.098
802.0	2.084
802.5	2.086
803.0	2.082
803.5	2.097
804.0	2.109
804.5	2.116
805.0	2.121
805.5	2.120
806.0	2.123
806.5	2.106
807.0	2.099
807.5	2.100
808.0	2.089
808.5	2.077
809.0	2.059
809.5	2.046
810.0	2.039
810.5	2.039
811.0	2.049
811.5	2.048
812.0	2.044
812.5	2.040
813.0	2.039
813.5	2.028
814.0	2.020
814.5	2.010
815.0	2.010
815.5	2.008
816.0	2.018
816.5	2.003
817.0	2.004
817.5	2.017
818.0	2.020
818.5	2.027
819.0	2.035
819.5	2.038
820.0	2.045
820.5	2.050
821.0	2.064
821.5	2.075
822.0	2.098
822.5	2.119
823.0	2.137
823.5	2.158
824.0	2.153
824.5	2.123
825.0	2.091
825.5	2.066
826.0	2.045
826.5	2.033
827.0	2.030
827.5	2.044
828.0	2.063
828.5	2.072
829.0	2.068
829.5	2.066
830.0	2.068
830.5	2.061
831.0	2.038
831.5	2.028
832.0	2.020
832.5	2.014
833.0	2.016
833.5	2.024
834.0	2.054
834.5	2.076
835.0	2.081
835.5	2.070
836.0	2.048
836.5	2.049
837.0	2.037
837.5	2.030
838.0	2.026
838.5	2.027
839.0	2.032
839.5	2.031
840.0	2.019
840.5	2.016
841.0	2.010
841.5	2.008
842.0	1.984
842.5	1.963
843.0	1.941
843.5	1.927
844.0	1.942
844.5	1.966
845.0	1.983
845.5	1.996
846.0	1.993
846.5	1.968
847.0	1.928
847.5	1.907
848.0	1.905
848.5	1.935
849.0	1.992
849.5	2.025
850.0	2.030


8
5/21/2024 5:46 PM
Wavelength (nm)	10mm Absorbance
//WLCalib: Shift 	0.10667	
//WLCalib: 261S 	-0.59000	
//WLCalib: 362S 	-0.96000	
//WLCalib: 484S 	-0.30000	
//WLCalib: 529S 	-0.11000	
//WLCalib: 823S 	-0.54000	
//QSpecEnd: 
190.0	2.945
190.5	3.165
191.0	3.141
191.5	3.233
192.0	2.838
192.5	2.459
193.0	2.077
193.5	1.861
194.0	1.840
194.5	1.745
195.0	1.983
195.5	2.251
196.0	2.325
196.5	2.410
197.0	2.373
197.5	2.560
198.0	2.884
198.5	3.210
199.0	3.635
199.5	4.187
200.0	4.487
200.5	4.742
201.0	5.015
201.5	5.420
202.0	5.961
202.5	6.526
203.0	7.059
203.5	7.712
204.0	8.247
204.5	8.923
205.0	9.261
205.5	9.554
206.0	9.959
206.5	10.151
207.0	10.396
207.5	10.537
208.0	10.751
208.5	10.841
209.0	10.921
209.5	11.001
210.0	11.160
210.5	11.283
211.0	11.434
211.5	11.523
212.0	11.668
212.5	11.769
213.0	11.840
213.5	11.853
214.0	11.862
214.5	11.954
215.0	12.075
215.5	12.244
216.0	12.320
216.5	12.538
217.0	12.827
217.5	13.131
218.0	13.406
218.5	13.701
219.0	14.067
219.5	14.487
220.0	14.910
220.5	15.357
221.0	15.776
221.5	16.255
222.0	16.628
222.5	16.948
223.0	17.243
223.5	17.547
224.0	17.902
224.5	18.276
225.0	18.710
225.5	19.278
226.0	20.110
226.5	21.214
227.0	22.461
227.5	23.730
228.0	24.882
228.5	25.815
229.0	26.454
229.5	26.734
230.0	26.667
230.5	26.388
231.0	25.930
231.5	25.723
232.0	25.288
232.5	24.952
233.0	24.335
233.5	23.782
234.0	23.262
234.5	22.911
235.0	22.562
235.5	22.206
236.0	21.805
236.5	21.535
237.0	21.046
237.5	20.577
238.0	19.837
238.5	19.235
239.0	18.573
239.5	18.132
240.0	17.668
240.5	17.234
241.0	16.809
241.5	16.443
242.0	16.161
242.5	15.909
243.0	15.741
243.5	15.529
244.0	15.289
244.5	15.042
245.0	14.756
245.5	14.508
246.0	14.242
246.5	13.960
247.0	13.765
247.5	13.630
248.0	13.509
248.5	13.383
249.0	13.270
249.5	13.151
250.0	13.022
250.5	12.895
251.0	12.738
251.5	12.580
252.0	12.491
252.5	12.360
253.0	12.244
253.5	12.135
254.0	12.054
254.5	11.978
255.0	11.919
255.5	11.868
256.0	11.802
256.5	11.742
257.0	11.688
257.5	11.608
258.0	11.533
258.5	11.477
259.0	11.422
259.5	11.412
260.0	11.416
260.5	11.412
261.0	11.409
261.5	11.408
262.0	11.381
262.5	11.322
263.0	11.289
263.5	11.275
264.0	11.247
264.5	11.240
265.0	11.232
265.5	11.207
266.0	11.199
266.5	11.191
267.0	11.158
267.5	11.120
268.0	11.125
268.5	11.139
269.0	11.162
269.5	11.161
270.0	11.159
270.5	11.126
271.0	11.091
271.5	11.008
272.0	10.927
272.5	10.888
273.0	10.853
273.5	10.816
274.0	10.776
274.5	10.710
275.0	10.669
275.5	10.605
276.0	10.535
276.5	10.456
277.0	10.410
277.5	10.386
278.0	10.327
278.5	10.251
279.0	10.165
279.5	10.061
280.0	9.956
280.5	9.820
281.0	9.698
281.5	9.593
282.0	9.494
282.5	9.401
283.0	9.297
283.5	9.195
284.0	9.102
284.5	9.007
285.0	8.901
285.5	8.795
286.0	8.698
286.5	8.596
287.0	8.485
287.5	8.372
288.0	8.254
288.5	8.135
289.0	8.021
289.5	7.918
290.0	7.812
290.5	7.713
291.0	7.610
291.5	7.502
292.0	7.399
292.5	7.300
293.0	7.198
293.5	7.100
294.0	7.005
294.5	6.922
295.0	6.830
295.5	6.736
296.0	6.652
296.5	6.567
297.0	6.480
297.5	6.400
298.0	6.326
298.5	6.246
299.0	6.172
299.5	6.102
300.0	6.026
300.5	5.952
301.0	5.882
301.5	5.810
302.0	5.737
302.5	5.675
303.0	5.613
303.5	5.552
304.0	5.505
304.5	5.451
305.0	5.407
305.5	5.363
306.0	5.312
306.5	5.258
307.0	5.212
307.5	5.160
308.0	5.102
308.5	5.053
309.0	5.012
309.5	4.966
310.0	4.933
310.5	4.899
311.0	4.862
311.5	4.830
312.0	4.811
312.5	4.774
313.0	4.737
313.5	4.702
314.0	4.667
314.5	4.625
315.0	4.593
315.5	4.560
316.0	4.528
316.5	4.502
317.0	4.476
317.5	4.443
318.0	4.411
318.5	4.385
319.0	4.357
319.5	4.328
320.0	4.318
320.5	4.299
321.0	4.280
321.5	4.259
322.0	4.231
322.5	4.209
323.0	4.183
323.5	4.154
324.0	4.124
324.5	4.097
325.0	4.072
325.5	4.041
326.0	4.012
326.5	3.989
327.0	3.966
327.5	3.947
328.0	3.921
328.5	3.887
329.0	3.862
329.5	3.827
330.0	3.791
330.5	3.755
331.0	3.723
331.5	3.700
332.0	3.672
332.5	3.640
333.0	3.608
333.5	3.575
334.0	3.539
334.5	3.504
335.0	3.470
335.5	3.437
336.0	3.401
336.5	3.365
337.0	3.318
337.5	3.270
338.0	3.224
338.5	3.179
339.0	3.126
339.5	3.079
340.0	3.030
340.5	2.985
341.0	2.941
341.5	2.900
342.0	2.856
342.5	2.813
343.0	2.775
343.5	2.739
344.0	2.695
344.5	2.646
345.0	2.598
345.5	2.554
346.0	2.514
346.5	2.470
347.0	2.427
347.5	2.378
348.0	2.338
348.5	2.287
349.0	2.238
349.5	2.184
350.0	2.140
350.5	2.102
351.0	2.057
351.5	2.010
352.0	1.970
352.5	1.926
353.0	1.884
353.5	1.834
354.0	1.789
354.5	1.747
355.0	1.714
355.5	1.679
356.0	1.645
356.5	1.609
357.0	1.576
357.5	1.546
358.0	1.508
358.5	1.473
359.0	1.436
359.5	1.402
360.0	1.368
360.5	1.331
361.0	1.302
361.5	1.271
362.0	1.243
362.5	1.221
363.0	1.198
363.5	1.176
364.0	1.153
364.5	1.131
365.0	1.106
365.5	1.079
366.0	1.059
366.5	1.037
367.0	1.013
367.5	0.992
368.0	0.968
368.5	0.943
369.0	0.921
369.5	0.897
370.0	0.874
370.5	0.856
371.0	0.845
371.5	0.837
372.0	0.824
372.5	0.812
373.0	0.798
373.5	0.780
374.0	0.764
374.5	0.748
375.0	0.731
375.5	0.719
376.0	0.708
376.5	0.703
377.0	0.693
377.5	0.682
378.0	0.671
378.5	0.656
379.0	0.645
379.5	0.635
380.0	0.623
380.5	0.614
381.0	0.601
381.5	0.590
382.0	0.577
382.5	0.568
383.0	0.563
383.5	0.556
384.0	0.551
384.5	0.545
385.0	0.537
385.5	0.531
386.0	0.520
386.5	0.505
387.0	0.499
387.5	0.494
388.0	0.490
388.5	0.485
389.0	0.480
389.5	0.475
390.0	0.471
390.5	0.469
391.0	0.462
391.5	0.454
392.0	0.452
392.5	0.448
393.0	0.440
393.5	0.433
394.0	0.428
394.5	0.423
395.0	0.422
395.5	0.418
396.0	0.412
396.5	0.405
397.0	0.400
397.5	0.396
398.0	0.392
398.5	0.388
399.0	0.389
399.5	0.384
400.0	0.380
400.5	0.376
401.0	0.374
401.5	0.365
402.0	0.358
402.5	0.354
403.0	0.353
403.5	0.347
404.0	0.348
404.5	0.342
405.0	0.340
405.5	0.337
406.0	0.333
406.5	0.328
407.0	0.325
407.5	0.320
408.0	0.318
408.5	0.311
409.0	0.307
409.5	0.305
410.0	0.300
410.5	0.296
411.0	0.291
411.5	0.288
412.0	0.286
412.5	0.281
413.0	0.281
413.5	0.279
414.0	0.276
414.5	0.279
415.0	0.278
415.5	0.277
416.0	0.276
416.5	0.273
417.0	0.271
417.5	0.265
418.0	0.262
418.5	0.263
419.0	0.262
419.5	0.262
420.0	0.261
420.5	0.258
421.0	0.256
421.5	0.253
422.0	0.250
422.5	0.245
423.0	0.243
423.5	0.251
424.0	0.250
424.5	0.248
425.0	0.248
425.5	0.242
426.0	0.240
426.5	0.237
427.0	0.232
427.5	0.226
428.0	0.220
428.5	0.219
429.0	0.213
429.5	0.208
430.0	0.203
430.5	0.197
431.0	0.199
431.5	0.196
432.0	0.198
432.5	0.198
433.0	0.197
433.5	0.196
434.0	0.196
434.5	0.195
435.0	0.193
435.5	0.190
436.0	0.190
436.5	0.186
437.0	0.188
437.5	0.187
438.0	0.189
438.5	0.188
439.0	0.189
439.5	0.188
440.0	0.189
440.5	0.187
441.0	0.186
441.5	0.183
442.0	0.181
442.5	0.178
443.0	0.177
443.5	0.172
444.0	0.167
444.5	0.164
445.0	0.166
445.5	0.169
446.0	0.171
446.5	0.175
447.0	0.173
447.5	0.174
448.0	0.173
448.5	0.167
449.0	0.161
449.5	0.156
450.0	0.155
450.5	0.153
451.0	0.151
451.5	0.151
452.0	0.148
452.5	0.149
453.0	0.153
453.5	0.153
454.0	0.152
454.5	0.148
455.0	0.149
455.5	0.147
456.0	0.146
456.5	0.143
457.0	0.139
457.5	0.138
458.0	0.142
458.5	0.144
459.0	0.143
459.5	0.142
460.0	0.145
460.5	0.147
461.0	0.150
461.5	0.147
462.0	0.144
462.5	0.146
463.0	0.147
463.5	0.144
464.0	0.145
464.5	0.146
465.0	0.145
465.5	0.146
466.0	0.146
466.5	0.144
467.0	0.143
467.5	0.143
468.0	0.138
468.5	0.134
469.0	0.136
469.5	0.131
470.0	0.124
470.5	0.119
471.0	0.119
471.5	0.122
472.0	0.121
472.5	0.118
473.0	0.114
473.5	0.116
474.0	0.114
474.5	0.115
475.0	0.118
475.5	0.121
476.0	0.127
476.5	0.130
477.0	0.126
477.5	0.120
478.0	0.115
478.5	0.112
479.0	0.110
479.5	0.110
480.0	0.109
480.5	0.109
481.0	0.111
481.5	0.110
482.0	0.110
482.5	0.112
483.0	0.117
483.5	0.121
484.0	0.124
484.5	0.123
485.0	0.121
485.5	0.122
486.0	0.122
486.5	0.121
487.0	0.120
487.5	0.120
488.0	0.120
488.5	0.118
489.0	0.119
489.5	0.118
490.0	0.124
490.5	0.127
491.0	0.128
491.5	0.122
492.0	0.117
492.5	0.111
493.0	0.108
493.5	0.106
494.0	0.107
494.5	0.108
495.0	0.111
495.5	0.110
496.0	0.108
496.5	0.097
497.0	0.090
497.5	0.089
498.0	0.090
498.5	0.091
499.0	0.094
499.5	0.098
500.0	0.099
500.5	0.102
501.0	0.101
501.5	0.099
502.0	0.097
502.5	0.100
503.0	0.099
503.5	0.102
504.0	0.101
504.5	0.101
505.0	0.097
505.5	0.098
506.0	0.096
506.5	0.098
507.0	0.098
507.5	0.099
508.0	0.100
508.5	0.105
509.0	0.108
509.5	0.108
510.0	0.106
510.5	0.104
511.0	0.099
511.5	0.097
512.0	0.094
512.5	0.094
513.0	0.091
513.5	0.092
514.0	0.098
514.5	0.097
515.0	0.095
515.5	0.092
516.0	0.088
516.5	0.089
517.0	0.092
517.5	0.092
518.0	0.091
518.5	0.094
519.0	0.098
519.5	0.097
520.0	0.092
520.5	0.087
521.0	0.085
521.5	0.087
522.0	0.085
522.5	0.085
523.0	0.084
523.5	0.089
524.0	0.091
524.5	0.087
525.0	0.081
525.5	0.080
526.0	0.079
526.5	0.081
527.0	0.080
527.5	0.085
528.0	0.088
528.5	0.095
529.0	0.096
529.5	0.096
530.0	0.100
530.5	0.101
531.0	0.095
531.5	0.097
532.0	0.098
532.5	0.099
533.0	0.098
533.5	0.099
534.0	0.101
534.5	0.103
535.0	0.105
535.5	0.110
536.0	0.107
536.5	0.106
537.0	0.107
537.5	0.102
538.0	0.097
538.5	0.093
539.0	0.090
539.5	0.088
540.0	0.086
540.5	0.094
541.0	0.096
541.5	0.096
542.0	0.098
542.5	0.096
543.0	0.096
543.5	0.096
544.0	0.096
544.5	0.101
545.0	0.103
545.5	0.104
546.0	0.104
546.5	0.099
547.0	0.095
547.5	0.089
548.0	0.087
548.5	0.084
549.0	0.082
549.5	0.085
550.0	0.085
550.5	0.078
551.0	0.078
551.5	0.079
552.0	0.079
552.5	0.079
553.0	0.080
553.5	0.078
554.0	0.073
554.5	0.073
555.0	0.069
555.5	0.069
556.0	0.077
556.5	0.089
557.0	0.089
557.5	0.094
558.0	0.089
558.5	0.080
559.0	0.072
559.5	0.068
560.0	0.064
560.5	0.062
561.0	0.071
561.5	0.080
562.0	0.077
562.5	0.078
563.0	0.076
563.5	0.071
564.0	0.072
564.5	0.070
565.0	0.068
565.5	0.069
566.0	0.076
566.5	0.080
567.0	0.081
567.5	0.082
568.0	0.088
568.5	0.090
569.0	0.088
569.5	0.083
570.0	0.079
570.5	0.075
571.0	0.069
571.5	0.062
572.0	0.060
572.5	0.062
573.0	0.064
573.5	0.070
574.0	0.071
574.5	0.076
575.0	0.079
575.5	0.081
576.0	0.077
576.5	0.072
577.0	0.074
577.5	0.072
578.0	0.067
578.5	0.065
579.0	0.058
579.5	0.058
580.0	0.053
580.5	0.054
581.0	0.058
581.5	0.065
582.0	0.074
582.5	0.078
583.0	0.082
583.5	0.081
584.0	0.071
584.5	0.068
585.0	0.060
585.5	0.056
586.0	0.054
586.5	0.058
587.0	0.066
587.5	0.074
588.0	0.077
588.5	0.074
589.0	0.067
589.5	0.061
590.0	0.054
590.5	0.051
591.0	0.050
591.5	0.057
592.0	0.067
592.5	0.072
593.0	0.075
593.5	0.075
594.0	0.076
594.5	0.075
595.0	0.073
595.5	0.069
596.0	0.060
596.5	0.055
597.0	0.049
597.5	0.045
598.0	0.042
598.5	0.039
599.0	0.039
599.5	0.039
600.0	0.038
600.5	0.034
601.0	0.029
601.5	0.029
602.0	0.035
602.5	0.043
603.0	0.052
603.5	0.061
604.0	0.069
604.5	0.075
605.0	0.076
605.5	0.066
606.0	0.050
606.5	0.040
607.0	0.032
607.5	0.027
608.0	0.029
608.5	0.034
609.0	0.045
609.5	0.056
610.0	0.062
610.5	0.055
611.0	0.050
611.5	0.047
612.0	0.046
612.5	0.041
613.0	0.035
613.5	0.038
614.0	0.042
614.5	0.043
615.0	0.041
615.5	0.034
616.0	0.032
616.5	0.030
617.0	0.030
617.5	0.027
618.0	0.030
618.5	0.035
619.0	0.040
619.5	0.040
620.0	0.039
620.5	0.043
621.0	0.047
621.5	0.054
622.0	0.057
622.5	0.060
623.0	0.059
623.5	0.052
624.0	0.045
624.5	0.031
625.0	0.026
625.5	0.033
626.0	0.043
626.5	0.058
627.0	0.065
627.5	0.072
628.0	0.070
628.5	0.063
629.0	0.050
629.5	0.042
630.0	0.037
630.5	0.029
631.0	0.025
631.5	0.025
632.0	0.026
632.5	0.025
633.0	0.029
633.5	0.032
634.0	0.038
634.5	0.047
635.0	0.051
635.5	0.046
636.0	0.043
636.5	0.042
637.0	0.035
637.5	0.031
638.0	0.026
638.5	0.019
639.0	0.023
639.5	0.021
640.0	0.024
640.5	0.026
641.0	0.027
641.5	0.025
642.0	0.025
642.5	0.031
643.0	0.031
643.5	0.029
644.0	0.028
644.5	0.020
645.0	0.012
645.5	0.007
646.0	0.004
646.5	0.001
647.0	-0.004
647.5	0.001
648.0	0.007
648.5	0.013
649.0	0.017
649.5	0.019
650.0	0.021
650.5	0.025
651.0	0.029
651.5	0.029
652.0	0.018
652.5	0.014
653.0	0.011
653.5	0.003
654.0	-0.001
654.5	-0.004
655.0	-0.002
655.5	-0.004
656.0	0.005
656.5	0.008
657.0	0.015
657.5	0.022
658.0	0.027
658.5	0.028
659.0	0.029
659.5	0.034
660.0	0.033
660.5	0.024
661.0	0.026
661.5	0.019
662.0	0.015
662.5	0.010
663.0	0.014
663.5	0.016
664.0	0.018
664.5	0.022
665.0	0.023
665.5	0.020
666.0	0.024
666.5	0.019
667.0	0.020
667.5	0.021
668.0	0.024
668.5	0.029
669.0	0.036
669.5	0.033
670.0	0.026
670.5	0.021
671.0	0.012
671.5	0.004
672.0	0.002
672.5	-0.004
673.0	-0.010
673.5	-0.006
674.0	0.000
674.5	0.003
675.0	0.007
675.5	0.014
676.0	0.020
676.5	0.026
677.0	0.031
677.5	0.032
678.0	0.032
678.5	0.032
679.0	0.033
679.5	0.041
680.0	0.038
680.5	0.036
681.0	0.024
681.5	0.013
682.0	0.015
682.5	0.008
683.0	0.011
683.5	0.013
684.0	0.013
684.5	0.022
685.0	0.022
685.5	0.021
686.0	0.020
686.5	0.024
687.0	0.031
687.5	0.026
688.0	0.026
688.5	0.031
689.0	0.031
689.5	0.033
690.0	0.035
690.5	0.034
691.0	0.041
691.5	0.039
692.0	0.031
692.5	0.020
693.0	0.017
693.5	0.017
694.0	0.009
694.5	0.005
695.0	0.008
695.5	0.008
696.0	0.012
696.5	0.014
697.0	0.017
697.5	0.028
698.0	0.044
698.5	0.048
699.0	0.048
699.5	0.052
700.0	0.048
700.5	0.038
701.0	0.019
701.5	0.002
702.0	-0.011
702.5	-0.017
703.0	-0.024
703.5	-0.027
704.0	-0.023
704.5	-0.009
705.0	0.000
705.5	0.007
706.0	0.006
706.5	0.011
707.0	0.010
707.5	0.006
708.0	0.000
708.5	-0.009
709.0	-0.007
709.5	0.002
710.0	0.009
710.5	0.016
711.0	0.013
711.5	0.020
712.0	0.022
712.5	0.023
713.0	0.013
713.5	0.004
714.0	0.003
714.5	0.002
715.0	0.004
715.5	-0.003
716.0	0.000
716.5	0.006
717.0	0.012
717.5	0.013
718.0	0.008
718.5	0.006
719.0	0.006
719.5	0.009
720.0	0.013
720.5	0.011
721.0	0.015
721.5	0.016
722.0	0.014
722.5	0.013
723.0	0.011
723.5	0.006
724.0	0.006
724.5	0.009
725.0	0.015
725.5	0.009
726.0	-0.003
726.5	-0.005
727.0	-0.011
727.5	-0.018
728.0	-0.019
728.5	-0.027
729.0	-0.021
729.5	-0.006
730.0	0.005
730.5	0.002
731.0	0.004
731.5	0.010
732.0	0.011
732.5	0.006
733.0	0.002
733.5	-0.005
734.0	0.004
734.5	0.009
735.0	0.001
735.5	-0.009
736.0	-0.016
736.5	-0.020
737.0	-0.027
737.5	-0.031
738.0	-0.032
738.5	-0.025
739.0	-0.009
739.5	-0.009
740.0	-0.009
740.5	-0.009
741.0	-0.009
741.5	-0.008
742.0	-0.008
742.5	-0.007
743.0	-0.012
743.5	-0.011
744.0	-0.006
744.5	-0.015
745.0	-0.017
745.5	-0.014
746.0	-0.012
746.5	-0.007
747.0	0.000
747.5	-0.012
748.0	-0.024
748.5	-0.023
749.0	-0.013
749.5	-0.012
750.0	-0.009
750.5	-0.005
751.0	0.000
751.5	0.004
752.0	0.003
752.5	-0.007
753.0	-0.011
753.5	-0.013
754.0	-0.013
754.5	-0.012
755.0	-0.007
755.5	-0.014
756.0	-0.017
756.5	-0.013
757.0	-0.011
757.5	-0.001
758.0	0.004
758.5	0.004
759.0	0.003
759.5	0.007
760.0	0.004
760.5	-0.003
761.0	-0.005
761.5	-0.004
762.0	0.002
762.5	0.017
763.0	0.032
763.5	0.047
764.0	0.061
764.5	0.068
765.0	0.069
765.5	0.070
766.0	0.061
766.5	0.047
767.0	0.037
767.5	0.025
768.0	0.010
768.5	0.001
769.0	-0.003
769.5	-0.009
770.0	-0.006
770.5	-0.007
771.0	-0.008
771.5	0.001
772.0	-0.006
772.5	-0.022
773.0	-0.050
773.5	-0.073
774.0	-0.088
774.5	-0.088
775.0	-0.072
775.5	-0.055
776.0	-0.038
776.5	-0.020
777.0	-0.015
777.5	-0.017
778.0	-0.031
778.5	-0.036
779.0	-0.037
779.5	-0.027
780.0	-0.011
780.5	-0.008
781.0	-0.010
781.5	-0.020
782.0	-0.029
782.5	-0.040
783.0	-0.055
783.5	-0.059
784.0	-0.049
784.5	-0.025
785.0	0.000
785.5	0.013
786.0	0.031
786.5	0.048
787.0	0.060
787.5	0.062
788.0	0.055
788.5	0.039
789.0	0.024
789.5	0.006
790.0	-0.021
790.5	-0.040
791.0	-0.046
791.5	-0.043
792.0	-0.045
792.5	-0.035
793.0	-0.018
793.5	-0.012
794.0	-0.012
794.5	-0.010
795.0	-0.008
795.5	-0.003
796.0	-0.003
796.5	-0.010
797.0	-0.024
797.5	-0.031
798.0	-0.043
798.5	-0.044
799.0	-0.039
799.5	-0.037
800.0	-0.030
800.5	-0.026
801.0	-0.019
801.5	-0.020
802.0	-0.027
802.5	-0.031
803.0	-0.036
803.5	-0.015
804.0	-0.006
804.5	-0.002
805.0	0.012
805.5	0.017
806.0	0.020
806.5	0.020
807.0	0.022
807.5	0.025
808.0	0.018
808.5	0.012
809.0	-0.016
809.5	-0.027
810.0	-0.030
810.5	-0.050
811.0	-0.053
811.5	-0.059
812.0	-0.064
812.5	-0.066
813.0	-0.071
813.5	-0.083
814.0	-0.082
814.5	-0.078
815.0	-0.073
815.5	-0.075
816.0	-0.063
816.5	-0.065
817.0	-0.060
817.5	-0.049
818.0	-0.042
818.5	-0.035
819.0	-0.023
819.5	-0.032
820.0	-0.029
820.5	-0.030
821.0	-0.021
821.5	-0.006
822.0	0.014
822.5	0.041
823.0	0.057
823.5	0.077
824.0	0.077
824.5	0.058
825.0	0.041
825.5	0.024
826.0	0.014
826.5	0.006
827.0	0.001
827.5	0.014
828.0	0.027
828.5	0.039
829.0	0.034
829.5	0.022
830.0	0.006
830.5	-0.011
831.0	-0.037
831.5	-0.051
832.0	-0.052
832.5	-0.038
833.0	-0.019
833.5	0.001
834.0	0.021
834.5	0.034
835.0	0.029
835.5	0.023
836.0	0.006
836.5	0.004
837.0	-0.005
837.5	-0.012
838.0	-0.017
838.5	-0.020
839.0	-0.020
839.5	-0.029
840.0	-0.041
840.5	-0.030
841.0	-0.030
841.5	-0.036
842.0	-0.046
842.5	-0.071
843.0	-0.098
843.5	-0.117
844.0	-0.114
844.5	-0.110
845.0	-0.086
845.5	-0.050
846.0	-0.024
846.5	-0.020
847.0	-0.020
847.5	-0.030
848.0	-0.034
848.5	-0.012
849.0	0.026
849.5	0.037
850.0	0.034


9
5/21/2024 5:47 PM
Wavelength (nm)	10mm Absorbance
//WLCalib: Shift 	0.10667	
//WLCalib: 261S 	-0.59000	
//WLCalib: 362S 	-0.96000	
//WLCalib: 484S 	-0.30000	
//WLCalib: 529S 	-0.11000	
//WLCalib: 823S 	-0.54000	
//QSpecEnd: 
190.0	0.050
190.5	0.058
191.0	0.025
191.5	-0.134
192.0	-0.006
192.5	0.065
193.0	0.098
193.5	0.193
194.0	0.115
194.5	0.129
195.0	0.014
195.5	-0.119
196.0	-0.313
196.5	-0.433
197.0	-0.356
197.5	-0.387
198.0	-0.451
198.5	-0.418
199.0	-0.453
199.5	-0.441
200.0	-0.381
200.5	-0.342
201.0	-0.377
201.5	-0.298
202.0	0.144
202.5	0.295
203.0	0.597
203.5	1.101
204.0	1.396
204.5	1.676
205.0	1.715
205.5	1.759
206.0	1.871
206.5	2.069
207.0	2.577
207.5	2.468
208.0	2.921
208.5	3.189
209.0	3.199
209.5	3.397
210.0	3.692
210.5	4.153
211.0	4.640
211.5	5.069
212.0	5.501
212.5	5.633
213.0	5.658
213.5	5.559
214.0	5.596
214.5	5.936
215.0	6.214
215.5	6.596
216.0	6.892
216.5	7.124
217.0	7.405
217.5	7.497
218.0	7.577
218.5	7.909
219.0	8.315
219.5	8.810
220.0	9.260
220.5	9.802
221.0	10.183
221.5	10.706
222.0	11.093
222.5	11.427
223.0	11.747
223.5	12.120
224.0	12.524
224.5	12.978
225.0	13.475
225.5	14.139
226.0	15.066
226.5	16.294
227.0	17.585
227.5	18.923
228.0	20.125
228.5	21.138
229.0	21.844
229.5	22.204
230.0	22.204
230.5	21.967
231.0	21.648
231.5	21.368
232.0	21.138
232.5	20.969
233.0	20.903
233.5	20.968
234.0	21.178
234.5	21.457
235.0	21.715
235.5	21.922
236.0	22.110
236.5	22.292
237.0	22.462
237.5	22.619
238.0	22.822
238.5	23.099
239.0	23.560
239.5	24.097
240.0	24.563
240.5	24.741
241.0	24.812
241.5	24.655
242.0	24.391
242.5	24.078
243.0	23.739
243.5	23.289
244.0	22.845
244.5	22.671
245.0	22.296
245.5	21.803
246.0	21.533
246.5	21.283
247.0	21.149
247.5	21.058
248.0	21.078
248.5	20.830
249.0	20.559
249.5	20.361
250.0	20.188
250.5	20.042
251.0	19.891
251.5	19.583
252.0	19.565
252.5	19.560
253.0	19.688
253.5	19.814
254.0	19.706
254.5	19.677
255.0	19.720
255.5	19.482
256.0	19.189
256.5	18.817
257.0	18.813
257.5	18.716
258.0	18.726
258.5	18.965
259.0	18.974
259.5	19.083
260.0	19.198
260.5	19.070
261.0	19.102
261.5	19.117
262.0	19.197
262.5	19.244
263.0	19.223
263.5	19.192
264.0	19.255
264.5	19.310
265.0	19.263
265.5	19.126
266.0	18.991
266.5	19.068
267.0	18.983
267.5	18.851
268.0	18.962
268.5	19.168
269.0	19.526
269.5	19.758
270.0	19.809
270.5	19.777
271.0	19.535
271.5	19.464
272.0	19.033
272.5	18.738
273.0	18.617
273.5	18.417
274.0	18.405
274.5	18.477
275.0	18.381
275.5	18.297
276.0	18.247
276.5	18.367
277.0	18.341
277.5	18.348
278.0	18.161
278.5	17.985
279.0	17.858
279.5	17.642
280.0	17.263
280.5	16.936
281.0	16.780
281.5	16.641
282.0	16.543
282.5	16.377
283.0	16.211
283.5	16.086
284.0	15.926
284.5	15.724
285.0	15.512
285.5	15.327
286.0	15.177
286.5	14.982
287.0	14.813
287.5	14.628
288.0	14.446
288.5	14.277
289.0	14.100
289.5	13.900
290.0	13.706
290.5	13.525
291.0	13.379
291.5	13.200
292.0	13.054
292.5	12.892
293.0	12.736
293.5	12.584
294.0	12.438
294.5	12.299
295.0	12.161
295.5	12.041
296.0	11.933
296.5	11.813
297.0	11.701
297.5	11.572
298.0	11.464
298.5	11.355
299.0	11.245
299.5	11.139
300.0	11.003
300.5	10.887
301.0	10.774
301.5	10.681
302.0	10.597
302.5	10.506
303.0	10.432
303.5	10.361
304.0	10.276
304.5	10.194
305.0	10.094
305.5	9.993
306.0	9.893
306.5	9.809
307.0	9.732
307.5	9.649
308.0	9.584
308.5	9.523
309.0	9.446
309.5	9.392
310.0	9.332
310.5	9.265
311.0	9.210
311.5	9.155
312.0	9.102
312.5	9.042
313.0	8.973
313.5	8.903
314.0	8.827
314.5	8.759
315.0	8.694
315.5	8.638
316.0	8.594
316.5	8.550
317.0	8.508
317.5	8.448
318.0	8.381
318.5	8.329
319.0	8.267
319.5	8.208
320.0	8.146
320.5	8.089
321.0	8.036
321.5	7.986
322.0	7.918
322.5	7.864
323.0	7.818
323.5	7.781
324.0	7.733
324.5	7.691
325.0	7.639
325.5	7.593
326.0	7.537
326.5	7.490
327.0	7.428
327.5	7.383
328.0	7.332
328.5	7.265
329.0	7.207
329.5	7.153
330.0	7.091
330.5	7.031
331.0	6.966
331.5	6.924
332.0	6.863
332.5	6.808
333.0	6.743
333.5	6.674
334.0	6.609
334.5	6.545
335.0	6.478
335.5	6.427
336.0	6.369
336.5	6.309
337.0	6.235
337.5	6.167
338.0	6.094
338.5	6.022
339.0	5.938
339.5	5.862
340.0	5.787
340.5	5.717
341.0	5.637
341.5	5.560
342.0	5.489
342.5	5.416
343.0	5.349
343.5	5.289
344.0	5.220
344.5	5.149
345.0	5.073
345.5	5.002
346.0	4.930
346.5	4.860
347.0	4.797
347.5	4.721
348.0	4.659
348.5	4.593
349.0	4.524
349.5	4.455
350.0	4.391
350.5	4.328
351.0	4.250
351.5	4.175
352.0	4.105
352.5	4.035
353.0	3.975
353.5	3.913
354.0	3.857
354.5	3.800
355.0	3.744
355.5	3.684
356.0	3.623
356.5	3.564
357.0	3.509
357.5	3.460
358.0	3.404
358.5	3.356
359.0	3.302
359.5	3.243
360.0	3.188
360.5	3.137
361.0	3.092
361.5	3.044
362.0	3.004
362.5	2.966
363.0	2.925
363.5	2.894
364.0	2.855
364.5	2.812
365.0	2.769
365.5	2.727
366.0	2.690
366.5	2.656
367.0	2.617
367.5	2.577
368.0	2.541
368.5	2.510
369.0	2.476
369.5	2.440
370.0	2.404
370.5	2.380
371.0	2.361
371.5	2.339
372.0	2.309
372.5	2.280
373.0	2.250
373.5	2.223
374.0	2.193
374.5	2.166
375.0	2.140
375.5	2.125
376.0	2.104
376.5	2.086
377.0	2.068
377.5	2.051
378.0	2.037
378.5	2.023
379.0	2.007
379.5	1.994
380.0	1.975
380.5	1.961
381.0	1.936
381.5	1.914
382.0	1.891
382.5	1.870
383.0	1.855
383.5	1.837
384.0	1.821
384.5	1.809
385.0	1.795
385.5	1.784
386.0	1.769
386.5	1.756
387.0	1.749
387.5	1.735
388.0	1.722
388.5	1.710
389.0	1.695
389.5	1.683
390.0	1.668
390.5	1.654
391.0	1.643
391.5	1.636
392.0	1.634
392.5	1.624
393.0	1.611
393.5	1.600
394.0	1.584
394.5	1.568
395.0	1.557
395.5	1.547
396.0	1.536
396.5	1.529
397.0	1.519
397.5	1.511
398.0	1.501
398.5	1.488
399.0	1.477
399.5	1.466
400.0	1.462
400.5	1.456
401.0	1.451
401.5	1.443
402.0	1.430
402.5	1.425
403.0	1.417
403.5	1.406
404.0	1.400
404.5	1.388
405.0	1.378
405.5	1.369
406.0	1.358
406.5	1.348
407.0	1.336
407.5	1.327
408.0	1.321
408.5	1.313
409.0	1.307
409.5	1.296
410.0	1.289
410.5	1.281
411.0	1.268
411.5	1.261
412.0	1.251
412.5	1.243
413.0	1.240
413.5	1.235
414.0	1.231
414.5	1.228
415.0	1.226
415.5	1.221
416.0	1.212
416.5	1.207
417.0	1.199
417.5	1.193
418.0	1.188
418.5	1.185
419.0	1.183
419.5	1.177
420.0	1.169
420.5	1.163
421.0	1.154
421.5	1.148
422.0	1.140
422.5	1.134
423.0	1.130
423.5	1.130
424.0	1.127
424.5	1.123
425.0	1.117
425.5	1.111
426.0	1.105
426.5	1.097
427.0	1.089
427.5	1.080
428.0	1.070
428.5	1.061
429.0	1.054
429.5	1.047
430.0	1.037
430.5	1.031
431.0	1.029
431.5	1.027
432.0	1.023
432.5	1.020
433.0	1.019
433.5	1.015
434.0	1.009
434.5	1.001
435.0	0.995
435.5	0.988
436.0	0.984
436.5	0.980
437.0	0.974
437.5	0.970
438.0	0.969
438.5	0.965
439.0	0.962
439.5	0.958
440.0	0.955
440.5	0.950
441.0	0.948
441.5	0.945
442.0	0.941
442.5	0.935
443.0	0.931
443.5	0.927
444.0	0.924
444.5	0.919
445.0	0.918
445.5	0.919
446.0	0.921
446.5	0.920
447.0	0.918
447.5	0.915
448.0	0.908
448.5	0.904
449.0	0.896
449.5	0.884
450.0	0.877
450.5	0.874
451.0	0.867
451.5	0.862
452.0	0.857
452.5	0.854
453.0	0.854
453.5	0.851
454.0	0.848
454.5	0.841
455.0	0.844
455.5	0.844
456.0	0.842
456.5	0.841
457.0	0.837
457.5	0.834
458.0	0.833
458.5	0.827
459.0	0.823
459.5	0.817
460.0	0.816
460.5	0.811
461.0	0.811
461.5	0.808
462.0	0.803
462.5	0.800
463.0	0.797
463.5	0.797
464.0	0.797
464.5	0.794
465.0	0.789
465.5	0.788
466.0	0.789
466.5	0.788
467.0	0.788
467.5	0.787
468.0	0.786
468.5	0.787
469.0	0.788
469.5	0.784
470.0	0.776
470.5	0.770
471.0	0.765
471.5	0.760
472.0	0.755
472.5	0.749
473.0	0.742
473.5	0.739
474.0	0.741
474.5	0.740
475.0	0.741
475.5	0.743
476.0	0.749
476.5	0.747
477.0	0.742
477.5	0.738
478.0	0.731
478.5	0.728
479.0	0.723
479.5	0.718
480.0	0.713
480.5	0.711
481.0	0.713
481.5	0.712
482.0	0.713
482.5	0.718
483.0	0.725
483.5	0.728
484.0	0.728
484.5	0.728
485.0	0.723
485.5	0.718
486.0	0.716
486.5	0.717
487.0	0.719
487.5	0.719
488.0	0.720
488.5	0.718
489.0	0.718
489.5	0.718
490.0	0.718
490.5	0.716
491.0	0.714
491.5	0.710
492.0	0.709
492.5	0.702
493.0	0.699
493.5	0.694
494.0	0.695
494.5	0.696
495.0	0.694
495.5	0.691
496.0	0.683
496.5	0.676
497.0	0.673
497.5	0.672
498.0	0.676
498.5	0.679
499.0	0.687
499.5	0.690
500.0	0.687
500.5	0.687
501.0	0.684
501.5	0.681
502.0	0.679
502.5	0.679
503.0	0.678
503.5	0.679
504.0	0.680
504.5	0.678
505.0	0.673
505.5	0.680
506.0	0.680
506.5	0.683
507.0	0.685
507.5	0.685
508.0	0.682
508.5	0.683
509.0	0.680
509.5	0.676
510.0	0.673
510.5	0.674
511.0	0.671
511.5	0.669
512.0	0.672
512.5	0.675
513.0	0.675
513.5	0.673
514.0	0.671
514.5	0.665
515.0	0.657
515.5	0.648
516.0	0.641
516.5	0.639
517.0	0.646
517.5	0.653
518.0	0.657
518.5	0.659
519.0	0.662
519.5	0.663
520.0	0.656
520.5	0.646
521.0	0.644
521.5	0.643
522.0	0.646
522.5	0.645
523.0	0.644
523.5	0.645
524.0	0.647
524.5	0.650
525.0	0.644
525.5	0.638
526.0	0.631
526.5	0.633
527.0	0.634
527.5	0.635
528.0	0.634
528.5	0.639
529.0	0.646
529.5	0.650
530.0	0.653
530.5	0.655
531.0	0.653
531.5	0.656
532.0	0.657
532.5	0.658
533.0	0.655
533.5	0.657
534.0	0.656
534.5	0.649
535.0	0.646
535.5	0.648
536.0	0.647
536.5	0.644
537.0	0.643
537.5	0.641
538.0	0.637
538.5	0.635
539.0	0.630
539.5	0.630
540.0	0.629
540.5	0.635
541.0	0.635
541.5	0.637
542.0	0.638
542.5	0.633
543.0	0.631
543.5	0.630
544.0	0.631
544.5	0.637
545.0	0.637
545.5	0.636
546.0	0.632
546.5	0.631
547.0	0.631
547.5	0.625
548.0	0.623
548.5	0.621
549.0	0.619
549.5	0.617
550.0	0.614
550.5	0.609
551.0	0.604
551.5	0.605
552.0	0.608
552.5	0.605
553.0	0.604
553.5	0.605
554.0	0.604
554.5	0.605
555.0	0.603
555.5	0.600
556.0	0.602
556.5	0.604
557.0	0.606
557.5	0.604
558.0	0.599
558.5	0.593
559.0	0.591
559.5	0.590
560.0	0.587
560.5	0.582
561.0	0.592
561.5	0.594
562.0	0.591
562.5	0.586
563.0	0.586
563.5	0.586
564.0	0.588
564.5	0.589
565.0	0.587
565.5	0.588
566.0	0.593
566.5	0.594
567.0	0.590
567.5	0.590
568.0	0.596
568.5	0.599
569.0	0.596
569.5	0.588
570.0	0.581
570.5	0.574
571.0	0.569
571.5	0.567
572.0	0.568
572.5	0.570
573.0	0.573
573.5	0.581
574.0	0.583
574.5	0.585
575.0	0.584
575.5	0.581
576.0	0.578
576.5	0.578
577.0	0.578
577.5	0.572
578.0	0.567
578.5	0.565
579.0	0.558
579.5	0.553
580.0	0.549
580.5	0.545
581.0	0.547
581.5	0.554
582.0	0.556
582.5	0.560
583.0	0.565
583.5	0.573
584.0	0.569
584.5	0.571
585.0	0.571
585.5	0.568
586.0	0.563
586.5	0.562
587.0	0.558
587.5	0.558
588.0	0.559
588.5	0.557
589.0	0.547
589.5	0.542
590.0	0.540
590.5	0.539
591.0	0.538
591.5	0.538
592.0	0.543
592.5	0.545
593.0	0.547
593.5	0.546
594.0	0.543
594.5	0.545
595.0	0.547
595.5	0.546
596.0	0.542
596.5	0.534
597.0	0.529
597.5	0.523
598.0	0.517
598.5	0.511
599.0	0.511
599.5	0.516
600.0	0.516
600.5	0.514
601.0	0.507
601.5	0.502
602.0	0.502
602.5	0.507
603.0	0.509
603.5	0.512
604.0	0.520
604.5	0.530
605.0	0.531
605.5	0.525
606.0	0.513
606.5	0.502
607.0	0.494
607.5	0.487
608.0	0.486
608.5	0.492
609.0	0.504
609.5	0.517
610.0	0.523
610.5	0.519
611.0	0.515
611.5	0.508
612.0	0.500
612.5	0.487
613.0	0.480
613.5	0.483
614.0	0.485
614.5	0.488
615.0	0.484
615.5	0.481
616.0	0.476
616.5	0.477
617.0	0.480
617.5	0.477
618.0	0.478
618.5	0.484
619.0	0.486
619.5	0.487
620.0	0.487
620.5	0.493
621.0	0.495
621.5	0.503
622.0	0.502
622.5	0.499
623.0	0.492
623.5	0.481
624.0	0.467
624.5	0.454
625.0	0.448
625.5	0.451
626.0	0.460
626.5	0.472
627.0	0.479
627.5	0.488
628.0	0.487
628.5	0.480
629.0	0.465
629.5	0.458
630.0	0.452
630.5	0.447
631.0	0.448
631.5	0.451
632.0	0.458
632.5	0.462
633.0	0.465
633.5	0.470
634.0	0.468
634.5	0.469
635.0	0.462
635.5	0.448
636.0	0.437
636.5	0.434
637.0	0.431
637.5	0.428
638.0	0.430
638.5	0.433
639.0	0.437
639.5	0.437
640.0	0.433
640.5	0.426
641.0	0.420
641.5	0.416
642.0	0.412
642.5	0.414
643.0	0.421
643.5	0.421
644.0	0.427
644.5	0.424
645.0	0.414
645.5	0.403
646.0	0.394
646.5	0.387
647.0	0.376
647.5	0.382
648.0	0.390
648.5	0.393
649.0	0.404
649.5	0.412
650.0	0.418
650.5	0.421
651.0	0.418
651.5	0.407
652.0	0.389
652.5	0.385
653.0	0.377
653.5	0.367
654.0	0.371
654.5	0.376
655.0	0.385
655.5	0.389
656.0	0.391
656.5	0.390
657.0	0.395
657.5	0.403
658.0	0.405
658.5	0.402
659.0	0.406
659.5	0.408
660.0	0.407
660.5	0.399
661.0	0.394
661.5	0.392
662.0	0.391
662.5	0.390
663.0	0.388
663.5	0.385
664.0	0.386
664.5	0.389
665.0	0.380
665.5	0.371
666.0	0.367
666.5	0.366
667.0	0.366
667.5	0.369
668.0	0.368
668.5	0.378
669.0	0.391
669.5	0.394
670.0	0.388
670.5	0.387
671.0	0.377
671.5	0.368
672.0	0.364
672.5	0.354
673.0	0.343
673.5	0.349
674.0	0.348
674.5	0.346
675.0	0.350
675.5	0.356
676.0	0.356
676.5	0.357
677.0	0.363
677.5	0.359
678.0	0.355
678.5	0.354
679.0	0.349
679.5	0.350
680.0	0.346
680.5	0.344
681.0	0.330
681.5	0.325
682.0	0.331
682.5	0.337
683.0	0.341
683.5	0.348
684.0	0.349
684.5	0.354
685.0	0.353
685.5	0.355
686.0	0.348
686.5	0.350
687.0	0.361
687.5	0.361
688.0	0.361
688.5	0.357
689.0	0.350
689.5	0.345
690.0	0.345
690.5	0.346
691.0	0.349
691.5	0.348
692.0	0.351
692.5	0.344
693.0	0.339
693.5	0.330
694.0	0.316
694.5	0.306
695.0	0.306
695.5	0.308
696.0	0.314
696.5	0.320
697.0	0.331
697.5	0.343
698.0	0.359
698.5	0.357
699.0	0.350
699.5	0.341
700.0	0.332
700.5	0.322
701.0	0.304
701.5	0.287
702.0	0.282
702.5	0.277
703.0	0.279
703.5	0.273
704.0	0.281
704.5	0.292
705.0	0.299
705.5	0.297
706.0	0.287
706.5	0.285
707.0	0.286
707.5	0.285
708.0	0.286
708.5	0.284
709.0	0.293
709.5	0.300
710.0	0.310
710.5	0.315
711.0	0.314
711.5	0.322
712.0	0.324
712.5	0.324
713.0	0.316
713.5	0.303
714.0	0.291
714.5	0.287
715.0	0.294
715.5	0.292
716.0	0.298
716.5	0.297
717.0	0.296
717.5	0.296
718.0	0.291
718.5	0.285
719.0	0.285
719.5	0.286
720.0	0.282
720.5	0.282
721.0	0.289
721.5	0.287
722.0	0.290
722.5	0.294
723.0	0.297
723.5	0.296
724.0	0.292
724.5	0.293
725.0	0.293
725.5	0.293
726.0	0.283
726.5	0.278
727.0	0.276
727.5	0.271
728.0	0.264
728.5	0.252
729.0	0.249
729.5	0.256
730.0	0.266
730.5	0.269
731.0	0.273
731.5	0.282
732.0	0.286
732.5	0.279
733.0	0.266
733.5	0.250
734.0	0.241
734.5	0.231
735.0	0.233
735.5	0.232
736.0	0.239
736.5	0.240
737.0	0.239
737.5	0.240
738.0	0.248
738.5	0.249
739.0	0.250
739.5	0.254
740.0	0.261
740.5	0.261
741.0	0.260
741.5	0.253
742.0	0.252
742.5	0.252
743.0	0.251
743.5	0.241
744.0	0.227
744.5	0.218
745.0	0.217
745.5	0.220
746.0	0.224
746.5	0.232
747.0	0.240
747.5	0.236
748.0	0.232
748.5	0.231
749.0	0.233
749.5	0.237
750.0	0.239
750.5	0.244
751.0	0.250
751.5	0.254
752.0	0.250
752.5	0.242
753.0	0.241
753.5	0.234
754.0	0.235
754.5	0.241
755.0	0.240
755.5	0.235
756.0	0.235
756.5	0.243
757.0	0.249
757.5	0.251
758.0	0.252
758.5	0.246
759.0	0.249
759.5	0.254
760.0	0.253
760.5	0.244
761.0	0.244
761.5	0.248
762.0	0.250
762.5	0.262
763.0	0.276
763.5	0.294
764.0	0.317
764.5	0.326
765.0	0.335
765.5	0.332
766.0	0.319
766.5	0.293
767.0	0.267
767.5	0.248
768.0	0.225
768.5	0.204
769.0	0.198
769.5	0.192
770.0	0.200
770.5	0.208
771.0	0.221
771.5	0.230
772.0	0.233
772.5	0.229
773.0	0.207
773.5	0.176
774.0	0.157
774.5	0.143
775.0	0.151
775.5	0.169
776.0	0.185
776.5	0.201
777.0	0.207
777.5	0.217
778.0	0.214
778.5	0.208
779.0	0.199
779.5	0.201
780.0	0.213
780.5	0.216
781.0	0.209
781.5	0.200
782.0	0.181
782.5	0.174
783.0	0.165
783.5	0.155
784.0	0.157
784.5	0.181
785.0	0.207
785.5	0.227
786.0	0.246
786.5	0.259
787.0	0.265
787.5	0.271
788.0	0.272
788.5	0.258
789.0	0.241
789.5	0.227
790.0	0.204
790.5	0.190
791.0	0.180
791.5	0.178
792.0	0.172
792.5	0.186
793.0	0.203
793.5	0.208
794.0	0.213
794.5	0.217
795.0	0.224
795.5	0.232
796.0	0.236
796.5	0.235
797.0	0.218
797.5	0.205
798.0	0.186
798.5	0.179
799.0	0.173
799.5	0.159
800.0	0.161
800.5	0.162
801.0	0.170
801.5	0.174
802.0	0.172
802.5	0.166
803.0	0.158
803.5	0.167
804.0	0.176
804.5	0.184
805.0	0.195
805.5	0.194
806.0	0.203
806.5	0.220
807.0	0.231
807.5	0.233
808.0	0.227
808.5	0.224
809.0	0.213
809.5	0.208
810.0	0.198
810.5	0.177
811.0	0.182
811.5	0.183
812.0	0.172
812.5	0.169
813.0	0.151
813.5	0.124
814.0	0.118
814.5	0.122
815.0	0.135
815.5	0.139
816.0	0.159
816.5	0.160
817.0	0.170
817.5	0.180
818.0	0.178
818.5	0.182
819.0	0.204
819.5	0.206
820.0	0.212
820.5	0.211
821.0	0.225
821.5	0.231
822.0	0.245
822.5	0.260
823.0	0.274
823.5	0.283
824.0	0.282
824.5	0.258
825.0	0.234
825.5	0.218
826.0	0.208
826.5	0.200
827.0	0.195
827.5	0.203
828.0	0.217
828.5	0.230
829.0	0.235
829.5	0.240
830.0	0.234
830.5	0.221
831.0	0.197
831.5	0.183
832.0	0.172
832.5	0.176
833.0	0.190
833.5	0.201
834.0	0.219
834.5	0.234
835.0	0.229
835.5	0.217
836.0	0.189
836.5	0.184
837.0	0.170
837.5	0.174
838.0	0.180
838.5	0.183
839.0	0.189
839.5	0.189
840.0	0.176
840.5	0.177
841.0	0.169
841.5	0.160
842.0	0.141
842.5	0.132
843.0	0.120
843.5	0.102
844.0	0.105
844.5	0.116
845.0	0.123
845.5	0.154
846.0	0.177
846.5	0.175
847.0	0.168
847.5	0.153
848.0	0.153
848.5	0.164
849.0	0.200
849.5	0.215
850.0	0.222


10
5/21/2024 5:48 PM
Wavelength (nm)	10mm Absorbance
//WLCalib: Shift 	0.10667	
//WLCalib: 261S 	-0.59000	
//WLCalib: 362S 	-0.96000	
//WLCalib: 484S 	-0.30000	
//WLCalib: 529S 	-0.11000	
//WLCalib: 823S 	-0.54000	
//QSpecEnd: 
190.0	-0.045
190.5	-0.097
191.0	0.042
191.5	-0.097
192.0	0.072
192.5	0.109
193.0	0.055
193.5	0.089
194.0	-0.001
194.5	-0.146
195.0	-0.327
195.5	-0.386
196.0	-0.450
196.5	-0.497
197.0	-0.437
197.5	-0.435
198.0	-0.427
198.5	-0.418
199.0	-0.421
199.5	-0.416
200.0	-0.398
200.5	-0.387
201.0	-0.374
201.5	-0.356
202.0	-0.345
202.5	-0.345
203.0	-0.470
203.5	-0.583
204.0	-0.383
204.5	-0.086
205.0	0.374
205.5	1.251
206.0	1.897
206.5	2.489
207.0	3.115
207.5	3.266
208.0	3.350
208.5	3.498
209.0	3.856
209.5	4.152
210.0	4.430
210.5	4.974
211.0	5.376
211.5	5.791
212.0	6.013
212.5	6.095
213.0	6.298
213.5	6.321
214.0	6.576
214.5	6.557
215.0	6.584
215.5	6.807
216.0	7.316
216.5	7.562
217.0	7.859
217.5	8.245
218.0	8.569
218.5	8.848
219.0	9.190
219.5	9.430
220.0	9.762
220.5	10.151
221.0	10.515
221.5	10.865
222.0	11.239
222.5	11.474
223.0	11.741
223.5	12.020
224.0	12.323
224.5	12.658
225.0	13.086
225.5	13.642
226.0	14.474
226.5	15.579
227.0	16.821
227.5	18.068
228.0	19.235
228.5	20.196
229.0	20.811
229.5	21.084
230.0	21.045
230.5	20.768
231.0	20.363
231.5	20.000
232.0	19.680
232.5	19.413
233.0	19.230
233.5	19.187
234.0	19.303
234.5	19.509
235.0	19.715
235.5	19.867
236.0	19.992
236.5	20.120
237.0	20.264
237.5	20.392
238.0	20.529
238.5	20.761
239.0	21.099
239.5	21.573
240.0	22.254
240.5	23.107
241.0	24.055
241.5	24.953
242.0	25.691
242.5	26.130
243.0	26.236
243.5	25.991
244.0	25.514
244.5	25.095
245.0	24.973
245.5	25.184
246.0	25.642
246.5	26.223
247.0	26.790
247.5	27.176
248.0	27.202
248.5	26.773
249.0	25.966
249.5	25.035
250.0	24.201
250.5	23.581
251.0	23.182
251.5	22.971
252.0	22.881
252.5	22.830
253.0	22.675
253.5	22.374
254.0	21.928
254.5	21.457
255.0	21.129
255.5	21.039
256.0	21.141
256.5	21.382
257.0	21.760
257.5	22.386
258.0	23.262
258.5	24.352
259.0	25.300
259.5	26.150
260.0	26.820
260.5	27.132
261.0	27.016
261.5	26.536
262.0	25.842
262.5	25.118
263.0	24.512
263.5	23.925
264.0	23.384
264.5	23.088
265.0	22.998
265.5	22.998
266.0	23.119
266.5	23.338
267.0	23.525
267.5	23.628
268.0	23.607
268.5	23.400
269.0	23.107
269.5	23.167
270.0	23.074
270.5	23.141
271.0	23.339
271.5	23.732
272.0	23.869
272.5	24.028
273.0	24.015
273.5	23.595
274.0	23.292
274.5	22.976
275.0	22.787
275.5	22.709
276.0	22.644
276.5	22.683
277.0	22.549
277.5	22.632
278.0	22.385
278.5	21.868
279.0	21.515
279.5	21.009
280.0	20.827
280.5	20.427
281.0	20.072
281.5	19.765
282.0	19.438
282.5	19.213
283.0	18.760
283.5	18.415
284.0	18.058
284.5	17.633
285.0	17.312
285.5	17.047
286.0	16.778
286.5	16.504
287.0	16.242
287.5	16.003
288.0	15.777
288.5	15.587
289.0	15.396
289.5	15.181
290.0	14.961
290.5	14.732
291.0	14.532
291.5	14.322
292.0	14.073
292.5	13.845
293.0	13.644
293.5	13.434
294.0	13.246
294.5	13.054
295.0	12.830
295.5	12.639
296.0	12.469
296.5	12.267
297.0	12.051
297.5	11.845
298.0	11.619
298.5	11.404
299.0	11.230
299.5	11.055
300.0	10.865
300.5	10.684
301.0	10.503
301.5	10.320
302.0	10.153
302.5	9.972
303.0	9.789
303.5	9.629
304.0	9.466
304.5	9.307
305.0	9.151
305.5	8.994
306.0	8.837
306.5	8.698
307.0	8.583
307.5	8.463
308.0	8.354
308.5	8.253
309.0	8.135
309.5	8.034
310.0	7.934
310.5	7.844
311.0	7.750
311.5	7.662
312.0	7.583
312.5	7.507
313.0	7.432
313.5	7.358
314.0	7.282
314.5	7.204
315.0	7.127
315.5	7.060
316.0	6.996
316.5	6.935
317.0	6.880
317.5	6.825
318.0	6.764
318.5	6.709
319.0	6.651
319.5	6.597
320.0	6.548
320.5	6.498
321.0	6.450
321.5	6.409
322.0	6.354
322.5	6.311
323.0	6.261
323.5	6.212
324.0	6.162
324.5	6.119
325.0	6.070
325.5	6.019
326.0	5.978
326.5	5.935
327.0	5.889
327.5	5.854
328.0	5.800
328.5	5.747
329.0	5.699
329.5	5.642
330.0	5.583
330.5	5.531
331.0	5.481
331.5	5.423
332.0	5.367
332.5	5.307
333.0	5.247
333.5	5.194
334.0	5.137
334.5	5.078
335.0	5.033
335.5	4.987
336.0	4.935
336.5	4.875
337.0	4.809
337.5	4.743
338.0	4.682
338.5	4.616
339.0	4.545
339.5	4.485
340.0	4.436
340.5	4.367
341.0	4.305
341.5	4.242
342.0	4.171
342.5	4.108
343.0	4.043
343.5	3.983
344.0	3.918
344.5	3.864
345.0	3.806
345.5	3.735
346.0	3.677
346.5	3.612
347.0	3.549
347.5	3.487
348.0	3.425
348.5	3.360
349.0	3.296
349.5	3.238
350.0	3.180
350.5	3.129
351.0	3.080
351.5	3.025
352.0	2.979
352.5	2.929
353.0	2.878
353.5	2.823
354.0	2.771
354.5	2.714
355.0	2.666
355.5	2.623
356.0	2.582
356.5	2.539
357.0	2.502
357.5	2.463
358.0	2.416
358.5	2.374
359.0	2.332
359.5	2.281
360.0	2.242
360.5	2.205
361.0	2.177
361.5	2.146
362.0	2.121
362.5	2.095
363.0	2.069
363.5	2.040
364.0	2.005
364.5	1.970
365.0	1.937
365.5	1.904
366.0	1.873
366.5	1.845
367.0	1.821
367.5	1.796
368.0	1.769
368.5	1.740
369.0	1.709
369.5	1.682
370.0	1.654
370.5	1.634
371.0	1.624
371.5	1.613
372.0	1.604
372.5	1.592
373.0	1.574
373.5	1.554
374.0	1.532
374.5	1.508
375.0	1.482
375.5	1.465
376.0	1.452
376.5	1.444
377.0	1.439
377.5	1.434
378.0	1.422
378.5	1.407
379.0	1.393
379.5	1.379
380.0	1.360
380.5	1.347
381.0	1.331
381.5	1.322
382.0	1.313
382.5	1.305
383.0	1.296
383.5	1.281
384.0	1.271
384.5	1.260
385.0	1.252
385.5	1.244
386.0	1.237
386.5	1.228
387.0	1.226
387.5	1.218
388.0	1.210
388.5	1.198
389.0	1.188
389.5	1.177
390.0	1.171
390.5	1.167
391.0	1.167
391.5	1.161
392.0	1.162
392.5	1.155
393.0	1.149
393.5	1.141
394.0	1.133
394.5	1.123
395.0	1.115
395.5	1.108
396.0	1.102
396.5	1.092
397.0	1.085
397.5	1.077
398.0	1.069
398.5	1.059
399.0	1.052
399.5	1.041
400.0	1.039
400.5	1.037
401.0	1.031
401.5	1.024
402.0	1.017
402.5	1.017
403.0	1.012
403.5	1.004
404.0	0.998
404.5	0.992
405.0	0.991
405.5	0.986
406.0	0.979
406.5	0.973
407.0	0.967
407.5	0.962
408.0	0.954
408.5	0.945
409.0	0.935
409.5	0.929
410.0	0.925
410.5	0.917
411.0	0.912
411.5	0.908
412.0	0.902
412.5	0.894
413.0	0.892
413.5	0.888
414.0	0.881
414.5	0.880
415.0	0.880
415.5	0.876
416.0	0.875
416.5	0.874
417.0	0.873
417.5	0.868
418.0	0.867
418.5	0.862
419.0	0.854
419.5	0.851
420.0	0.845
420.5	0.838
421.0	0.832
421.5	0.830
422.0	0.831
422.5	0.826
423.0	0.824
423.5	0.824
424.0	0.821
424.5	0.819
425.0	0.813
425.5	0.804
426.0	0.796
426.5	0.788
427.0	0.783
427.5	0.774
428.0	0.768
428.5	0.765
429.0	0.758
429.5	0.753
430.0	0.748
430.5	0.740
431.0	0.739
431.5	0.734
432.0	0.733
432.5	0.728
433.0	0.728
433.5	0.723
434.0	0.713
434.5	0.709
435.0	0.704
435.5	0.698
436.0	0.696
436.5	0.694
437.0	0.692
437.5	0.688
438.0	0.688
438.5	0.684
439.0	0.680
439.5	0.679
440.0	0.677
440.5	0.676
441.0	0.676
441.5	0.673
442.0	0.667
442.5	0.660
443.0	0.655
443.5	0.647
444.0	0.644
444.5	0.641
445.0	0.640
445.5	0.642
446.0	0.645
446.5	0.646
447.0	0.640
447.5	0.635
448.0	0.629
448.5	0.623
449.0	0.617
449.5	0.610
450.0	0.604
450.5	0.603
451.0	0.602
451.5	0.600
452.0	0.598
452.5	0.598
453.0	0.602
453.5	0.600
454.0	0.595
454.5	0.588
455.0	0.587
455.5	0.585
456.0	0.580
456.5	0.578
457.0	0.575
457.5	0.575
458.0	0.576
458.5	0.572
459.0	0.569
459.5	0.567
460.0	0.566
460.5	0.566
461.0	0.565
461.5	0.564
462.0	0.559
462.5	0.552
463.0	0.549
463.5	0.545
464.0	0.543
464.5	0.538
465.0	0.538
465.5	0.540
466.0	0.543
466.5	0.546
467.0	0.545
467.5	0.545
468.0	0.546
468.5	0.543
469.0	0.538
469.5	0.529
470.0	0.523
470.5	0.520
471.0	0.517
471.5	0.515
472.0	0.514
472.5	0.513
473.0	0.510
473.5	0.511
474.0	0.508
474.5	0.507
475.0	0.509
475.5	0.511
476.0	0.515
476.5	0.516
477.0	0.516
477.5	0.513
478.0	0.509
478.5	0.507
479.0	0.501
479.5	0.496
480.0	0.491
480.5	0.486
481.0	0.487
481.5	0.486
482.0	0.487
482.5	0.490
483.0	0.494
483.5	0.497
484.0	0.498
484.5	0.500
485.0	0.497
485.5	0.493
486.0	0.493
486.5	0.493
487.0	0.495
487.5	0.497
488.0	0.497
488.5	0.495
489.0	0.494
489.5	0.496
490.0	0.497
490.5	0.494
491.0	0.492
491.5	0.488
492.0	0.484
492.5	0.474
493.0	0.468
493.5	0.463
494.0	0.465
494.5	0.469
495.0	0.471
495.5	0.471
496.0	0.467
496.5	0.461
497.0	0.462
497.5	0.462
498.0	0.466
498.5	0.470
499.0	0.477
499.5	0.476
500.0	0.474
500.5	0.473
501.0	0.468
501.5	0.465
502.0	0.466
502.5	0.468
503.0	0.465
503.5	0.464
504.0	0.460
504.5	0.456
505.0	0.456
505.5	0.458
506.0	0.457
506.5	0.458
507.0	0.458
507.5	0.459
508.0	0.457
508.5	0.455
509.0	0.455
509.5	0.458
510.0	0.458
510.5	0.458
511.0	0.454
511.5	0.449
512.0	0.448
512.5	0.447
513.0	0.447
513.5	0.447
514.0	0.452
514.5	0.455
515.0	0.449
515.5	0.440
516.0	0.432
516.5	0.427
517.0	0.431
517.5	0.435
518.0	0.439
518.5	0.446
519.0	0.453
519.5	0.454
520.0	0.450
520.5	0.446
521.0	0.438
521.5	0.436
522.0	0.432
522.5	0.427
523.0	0.423
523.5	0.424
524.0	0.424
524.5	0.423
525.0	0.423
525.5	0.423
526.0	0.418
526.5	0.422
527.0	0.421
527.5	0.422
528.0	0.421
528.5	0.432
529.0	0.439
529.5	0.440
530.0	0.437
530.5	0.435
531.0	0.431
531.5	0.436
532.0	0.437
532.5	0.436
533.0	0.435
533.5	0.439
534.0	0.439
534.5	0.433
535.0	0.426
535.5	0.426
536.0	0.427
536.5	0.426
537.0	0.422
537.5	0.415
538.0	0.408
538.5	0.404
539.0	0.400
539.5	0.401
540.0	0.400
540.5	0.407
541.0	0.410
541.5	0.413
542.0	0.417
542.5	0.416
543.0	0.417
543.5	0.418
544.0	0.419
544.5	0.420
545.0	0.413
545.5	0.406
546.0	0.401
546.5	0.398
547.0	0.397
547.5	0.391
548.0	0.392
548.5	0.393
549.0	0.396
549.5	0.399
550.0	0.398
550.5	0.391
551.0	0.388
551.5	0.388
552.0	0.386
552.5	0.381
553.0	0.383
553.5	0.382
554.0	0.381
554.5	0.379
555.0	0.375
555.5	0.369
556.0	0.373
556.5	0.381
557.0	0.377
557.5	0.374
558.0	0.366
558.5	0.357
559.0	0.356
559.5	0.354
560.0	0.353
560.5	0.353
561.0	0.360
561.5	0.365
562.0	0.357
562.5	0.354
563.0	0.349
563.5	0.347
564.0	0.352
564.5	0.357
565.0	0.360
565.5	0.361
566.0	0.365
566.5	0.367
567.0	0.366
567.5	0.367
568.0	0.371
568.5	0.369
569.0	0.368
569.5	0.368
570.0	0.363
570.5	0.358
571.0	0.353
571.5	0.350
572.0	0.347
572.5	0.345
573.0	0.344
573.5	0.345
574.0	0.347
574.5	0.351
575.0	0.344
575.5	0.340
576.0	0.338
576.5	0.337
577.0	0.341
577.5	0.339
578.0	0.338
578.5	0.340
579.0	0.337
579.5	0.340
580.0	0.338
580.5	0.334
581.0	0.329
581.5	0.333
582.0	0.337
582.5	0.335
583.0	0.333
583.5	0.333
584.0	0.325
584.5	0.324
585.0	0.324
585.5	0.318
586.0	0.312
586.5	0.316
587.0	0.321
587.5	0.325
588.0	0.326
588.5	0.326
589.0	0.315
589.5	0.307
590.0	0.302
590.5	0.300
591.0	0.297
591.5	0.301
592.0	0.306
592.5	0.312
593.0	0.316
593.5	0.317
594.0	0.315
594.5	0.312
595.0	0.310
595.5	0.303
596.0	0.295
596.5	0.291
597.0	0.284
597.5	0.279
598.0	0.276
598.5	0.271
599.0	0.268
599.5	0.264
600.0	0.261
600.5	0.260
601.0	0.262
601.5	0.271
602.0	0.277
602.5	0.283
603.0	0.284
603.5	0.286
604.0	0.287
604.5	0.289
605.0	0.288
605.5	0.288
606.0	0.283
606.5	0.284
607.0	0.279
607.5	0.273
608.0	0.268
608.5	0.271
609.0	0.272
609.5	0.275
610.0	0.277
610.5	0.268
611.0	0.260
611.5	0.254
612.0	0.243
612.5	0.238
613.0	0.238
613.5	0.247
614.0	0.248
614.5	0.249
615.0	0.252
615.5	0.250
616.0	0.250
616.5	0.248
617.0	0.250
617.5	0.253
618.0	0.260
618.5	0.262
619.0	0.260
619.5	0.256
620.0	0.254
620.5	0.251
621.0	0.251
621.5	0.254
622.0	0.253
622.5	0.251
623.0	0.253
623.5	0.250
624.0	0.246
624.5	0.236
625.0	0.229
625.5	0.231
626.0	0.240
626.5	0.249
627.0	0.256
627.5	0.261
628.0	0.263
628.5	0.260
629.0	0.245
629.5	0.238
630.0	0.230
630.5	0.227
631.0	0.231
631.5	0.238
632.0	0.251
632.5	0.255
633.0	0.257
633.5	0.254
634.0	0.243
634.5	0.246
635.0	0.238
635.5	0.230
636.0	0.228
636.5	0.230
637.0	0.230
637.5	0.232
638.0	0.229
638.5	0.227
639.0	0.229
639.5	0.231
640.0	0.227
640.5	0.222
641.0	0.215
641.5	0.204
642.0	0.201
642.5	0.207
643.0	0.211
643.5	0.213
644.0	0.216
644.5	0.212
645.0	0.198
645.5	0.189
646.0	0.182
646.5	0.174
647.0	0.166
647.5	0.173
648.0	0.175
648.5	0.183
649.0	0.188
649.5	0.190
650.0	0.193
650.5	0.199
651.0	0.204
651.5	0.201
652.0	0.190
652.5	0.184
653.0	0.179
653.5	0.172
654.0	0.170
654.5	0.167
655.0	0.166
655.5	0.165
656.0	0.165
656.5	0.168
657.0	0.174
657.5	0.183
658.0	0.189
658.5	0.190
659.0	0.203
659.5	0.211
660.0	0.209
660.5	0.199
661.0	0.196
661.5	0.197
662.0	0.193
662.5	0.189
663.0	0.184
663.5	0.181
664.0	0.186
664.5	0.184
665.0	0.174
665.5	0.168
666.0	0.173
666.5	0.176
667.0	0.177
667.5	0.181
668.0	0.191
668.5	0.198
669.0	0.206
669.5	0.203
670.0	0.191
670.5	0.186
671.0	0.172
671.5	0.163
672.0	0.156
672.5	0.148
673.0	0.146
673.5	0.151
674.0	0.159
674.5	0.165
675.0	0.169
675.5	0.173
676.0	0.177
676.5	0.181
677.0	0.186
677.5	0.188
678.0	0.188
678.5	0.188
679.0	0.187
679.5	0.188
680.0	0.183
680.5	0.173
681.0	0.163
681.5	0.153
682.0	0.153
682.5	0.151
683.0	0.152
683.5	0.154
684.0	0.161
684.5	0.173
685.0	0.187
685.5	0.189
686.0	0.187
686.5	0.187
687.0	0.191
687.5	0.184
688.0	0.181
688.5	0.176
689.0	0.175
689.5	0.177
690.0	0.183
690.5	0.175
691.0	0.170
691.5	0.166
692.0	0.165
692.5	0.156
693.0	0.154
693.5	0.152
694.0	0.148
694.5	0.142
695.0	0.145
695.5	0.149
696.0	0.157
696.5	0.167
697.0	0.170
697.5	0.176
698.0	0.185
698.5	0.178
699.0	0.171
699.5	0.159
700.0	0.150
700.5	0.141
701.0	0.135
701.5	0.126
702.0	0.119
702.5	0.118
703.0	0.119
703.5	0.113
704.0	0.117
704.5	0.121
705.0	0.116
705.5	0.112
706.0	0.109
706.5	0.120
707.0	0.134
707.5	0.145
708.0	0.156
708.5	0.153
709.0	0.150
709.5	0.154
710.0	0.153
710.5	0.152
711.0	0.150
711.5	0.159
712.0	0.163
712.5	0.163
713.0	0.160
713.5	0.150
714.0	0.145
714.5	0.144
715.0	0.150
715.5	0.154
716.0	0.155
716.5	0.153
717.0	0.150
717.5	0.148
718.0	0.146
718.5	0.139
719.0	0.137
719.5	0.135
720.0	0.135
720.5	0.137
721.0	0.140
721.5	0.139
722.0	0.139
722.5	0.144
723.0	0.143
723.5	0.142
724.0	0.145
724.5	0.142
725.0	0.134
725.5	0.130
726.0	0.124
726.5	0.126
727.0	0.122
727.5	0.116
728.0	0.116
728.5	0.108
729.0	0.109
729.5	0.114
730.0	0.111
730.5	0.109
731.0	0.111
731.5	0.122
732.0	0.118
732.5	0.113
733.0	0.111
733.5	0.099
734.0	0.099
734.5	0.106
735.0	0.100
735.5	0.103
736.0	0.111
736.5	0.111
737.0	0.103
737.5	0.099
738.0	0.102
738.5	0.106
739.0	0.108
739.5	0.107
740.0	0.102
740.5	0.105
741.0	0.108
741.5	0.103
742.0	0.106
742.5	0.115
743.0	0.125
743.5	0.133
744.0	0.128
744.5	0.117
745.0	0.105
745.5	0.097
746.0	0.086
746.5	0.074
747.0	0.073
747.5	0.072
748.0	0.070
748.5	0.075
749.0	0.076
749.5	0.086
750.0	0.093
750.5	0.097
751.0	0.100
751.5	0.109
752.0	0.116
752.5	0.122
753.0	0.128
753.5	0.132
754.0	0.134
754.5	0.137
755.0	0.136
755.5	0.120
756.0	0.110
756.5	0.109
757.0	0.103
757.5	0.095
758.0	0.095
758.5	0.096
759.0	0.101
759.5	0.102
760.0	0.108
760.5	0.108
761.0	0.110
761.5	0.109
762.0	0.115
762.5	0.122
763.0	0.146
763.5	0.171
764.0	0.197
764.5	0.208
765.0	0.218
765.5	0.215
766.0	0.192
766.5	0.163
767.0	0.139
767.5	0.114
768.0	0.094
768.5	0.079
769.0	0.071
769.5	0.059
770.0	0.056
770.5	0.062
771.0	0.074
771.5	0.084
772.0	0.086
772.5	0.081
773.0	0.074
773.5	0.063
774.0	0.053
774.5	0.047
775.0	0.060
775.5	0.083
776.0	0.091
776.5	0.088
777.0	0.087
777.5	0.090
778.0	0.087
778.5	0.081
779.0	0.081
779.5	0.093
780.0	0.117
780.5	0.124
781.0	0.115
781.5	0.095
782.0	0.075
782.5	0.068
783.0	0.054
783.5	0.047
784.0	0.048
784.5	0.076
785.0	0.098
785.5	0.108
786.0	0.117
786.5	0.112
787.0	0.106
787.5	0.110
788.0	0.112
788.5	0.105
789.0	0.099
789.5	0.106
790.0	0.094
790.5	0.079
791.0	0.066
791.5	0.056
792.0	0.039
792.5	0.048
793.0	0.061
793.5	0.066
794.0	0.082
794.5	0.103
795.0	0.112
795.5	0.115
796.0	0.125
796.5	0.125
797.0	0.102
797.5	0.094
798.0	0.073
798.5	0.062
799.0	0.066
799.5	0.061
800.0	0.061
800.5	0.071
801.0	0.093
801.5	0.089
802.0	0.080
802.5	0.073
803.0	0.067
803.5	0.069
804.0	0.076
804.5	0.077
805.0	0.091
805.5	0.109
806.0	0.124
806.5	0.123
807.0	0.138
807.5	0.138
808.0	0.140
808.5	0.139
809.0	0.127
809.5	0.113
810.0	0.101
810.5	0.079
811.0	0.073
811.5	0.061
812.0	0.048
812.5	0.041
813.0	0.033
813.5	0.026
814.0	0.024
814.5	0.019
815.0	0.027
815.5	0.025
816.0	0.036
816.5	0.029
817.0	0.028
817.5	0.047
818.0	0.055
818.5	0.073
819.0	0.092
819.5	0.092
820.0	0.106
820.5	0.107
821.0	0.123
821.5	0.138
822.0	0.159
822.5	0.188
823.0	0.212
823.5	0.224
824.0	0.208
824.5	0.171
825.0	0.137
825.5	0.110
826.0	0.102
826.5	0.102
827.0	0.102
827.5	0.113
828.0	0.126
828.5	0.133
829.0	0.128
829.5	0.119
830.0	0.120
830.5	0.117
831.0	0.108
831.5	0.103
832.0	0.096
832.5	0.103
833.0	0.112
833.5	0.130
834.0	0.151
834.5	0.170
835.0	0.179
835.5	0.169
836.0	0.129
836.5	0.105
837.0	0.081
837.5	0.059
838.0	0.044
838.5	0.043
839.0	0.049
839.5	0.061
840.0	0.061
840.5	0.072
841.0	0.075
841.5	0.079
842.0	0.083
842.5	0.077
843.0	0.059
843.5	0.035
844.0	0.028
844.5	0.024
845.0	0.015
845.5	0.032
846.0	0.036
846.5	0.025
847.0	0.024
847.5	0.014
848.0	0.005
848.5	0.008
849.0	0.028
849.5	0.038
850.0	0.040

